{
  "resourceType": "Bundle",
  "id": "tests-numer-EXM165-bundle",
  "type": "transaction",
  "entry":[
      {
          "resource": {
              "resourceType": "Patient",
              "id": "numer-EXM165-Patient",
              "text": {
                  "status": "extensions"
              },
              "extension" : [
                  {
                    "url" : "http://hl7.org/fhir/StructureDefinition/us-core-race",
                    "valueCodeableConcept" : {
                      "coding" : [
                        {
                          "system" : "http://hl7.org/fhir/v3/Race",
                          "code" : "2106-3",
                          "display" : "White"
                        }
                      ],
                      "text" : "White"
                    }
                  },
                  {
                    "url" : "http://hl7.org/fhir/StructureDefinition/us-core-ethnicity",
                    "valueCodeableConcept" : {
                      "coding" : [
                        {
                          "system" : "http://hl7.org/fhir/v3/Ethnicity",
                          "code" : "2186-5",
                          "display" : "Not Hispanic or Latino"
                        }
                      ],
                      "text" : "Not Hispanic or Latino"
                    }
                  },
                  {
                    "url" : "http://hl7.org/fhir/StructureDefinition/us-core-birth-sex",
                    "valueCodeableConcept" : {
                      "coding" : [
                        {
                          "system" : "http://hl7.org/fhir/v3/AdministrativeGender",
                          "code" : "M",
                          "display" : "Male"
                        }
                      ],
                      "text" : "Male"
                    }
                  }
              ],
              "active": true,
              "name": [
              {
                  "use": "official",
                  "text": "BECK,TOM",
                  "family": "BECK",
                  "given": [
                  "TOM"
                  ]
              }
              ],
              "gender": "male",
              "birthDate": "1965-06-30"
          },
          "request": {
              "method": "PUT",
              "url": "Patient/numer-EXM165-Patient"
          }
      },
      {
          "resource": {
              "resourceType" : "Encounter",
              "id": "numer-EXM165-Encounter",
              "text" : {
              "status" : "generated"
              },
              "status" : "finished",
              "type" : [
              {
                  "coding" : [
                  {
                      "system" : "2.16.840.1.113883.6.12",
                      "code" : "99201",
                      "display" : "Office Visit"
                  }
                  ],
                  "text" : "Office Visit"
              }
              ],
              "subject" : {
              "reference" : "Patient/PAT12345678"
              },
              "period" : {
              "start" : "2019-01-16T08:30:00",
              "end" : "2019-01-20T08:30:00"
              }
          },
          "request": {
              "method": "PUT",
              "url": "Encounter/numer-EXM165-Encounter"
          }
      },
      {
          "resource":{
              "resourceType": "Condition",
              "id": "numer-EXM165-Condition",
              "clinicalStatus": {
                  "coding": [
                  {
                      "system": "http://terminology.hl7.org/CodeSystem/condition-clinical",
                      "code": "active",
                      "display": "Active"
                  }
                  ],
                  "text": "Active"
              },
              "verificationStatus": {
                  "coding": [
                  {
                      "system": "http://terminology.hl7.org/CodeSystem/condition-ver-status",
                      "code": "confirmed",
                      "display": "Confirmed"
                  }
                  ],
                  "text": "Confirmed"
              },
              "severity": {
                  "coding": [
                    {
                      "system": "http://snomed.info/sct",
                      "code": "6736007",
                      "display": "Moderate"
                    }
                  ],
                  "text": "Moderate"
                },
              "code": {
                  "coding": [
                  {
                      "system": "http://hl7.org/fhir/sid/icd-10-cm",
                      "code": "I10",
                      "display": "Hypertention"
                  }
                  ],
                  "text": "Hypertention"
              },
              "subject": {
                  "reference": "Patient/numer-EXM165-Patient"
              },
              "encounter": {
                  "reference": "Encounter/numer-EXM165-Encounter"
              },
              "onsetPeriod": {
                  "start": "2009-01-16T08:30:00"
              }
          },
          "request": {
              "method": "PUT",
              "url": "Condition/numer-EXM165-condition"
          }
      },
      {
          "resource": {
              "resourceType": "Observation",
              "id": "numer-EXM165-Observation",
              "text": {
                "status": "generated"
              },
              "status": "final",
              "category": [
                {
                  "coding": [
                    {
                      "system": "http://terminology.hl7.org/CodeSystem/observation-category",
                      "code": "vital-signs",
                      "display": "Vital Signs"
                    }
                  ]
                }
              ],
              "code": {
                "coding": [
                  {
                    "system": "http://loinc.org",
                    "code": "85354-9",
                    "display": "Blood pressure panel with all children optional"
                  }
                ],
                "text": "Blood pressure systolic & diastolic"
              },
              "subject": {
                "reference": "Patient/numer-EXM165-Patient",
                "display": "Tom Beck"
              },
              "effectiveDateTime": "2019-01-17T12:30:00Z",
              "interpretation": [
                {
                  "coding": [
                    {
                      "system": "http://terminology.hl7.org/CodeSystem/v3-ObservationInterpretation",
                      "code": "N",
                      "display": "normal"
                    }
                  ],
                  "text": "Normal"
                }
              ],
              "bodySite": {
                "coding": [
                  {
                    "system": "http://snomed.info/sct",
                    "code": "368209003",
                    "display": "Right arm"
                  }
                ]
              },
              "component": [
                {
                  "code": {
                    "coding": [
                      {
                        "system": "http://loinc.org",
                        "code": "8480-6",
                        "display": "Systolic blood pressure"
                      },
                      {
                        "system": "http://snomed.info/sct",
                        "code": "271649006",
                        "display": "Systolic blood pressure"
                      },
                      {
                        "system": "http://acme.org/devices/clinical-codes",
                        "code": "bp-s",
                        "display": "Systolic Blood pressure"
                      }
                    ]
                  },
                  "valueQuantity": {
                    "value": 120,
                    "unit": "mmHg",
                    "system": "http://unitsofmeasure.org",
                    "code": "mm[Hg]"
                  },
                  "interpretation": [
                    {
                      "coding": [
                        {
                          "system": "http://terminology.hl7.org/CodeSystem/v3-ObservationInterpretation",
                          "code": "N",
                          "display": "normal"
                        }
                      ],
                      "text": "Normal"
                    }
                  ]
                },
                {
                  "code": {
                    "coding": [
                      {
                        "system": "http://loinc.org",
                        "code": "8462-4",
                        "display": "Diastolic blood pressure"
                      }
                    ]
                  },
                  "valueQuantity": {
                    "value": 80,
                    "unit": "mmHg",
                    "system": "http://unitsofmeasure.org",
                    "code": "mm[Hg]"
                  },
                  "interpretation": [
                    {
                      "coding": [
                        {
                          "system": "http://terminology.hl7.org/CodeSystem/v3-ObservationInterpretation",
                          "code": "N",
                          "display": "normal"
                        }
                      ],
                      "text": "Normal"
                    }
                  ]
                }
              ]
          },
          "request": {
              "method": "PUT",
              "url": "Observation/numer-EXM165-Observation"
          }
      }
  ]
}
