{
  "resourceType": "Bundle",
  "id": "tests-numer-EXM165-Patient-bundle",
  "type": "transaction",
  "entry": [ {
    "resource": {
      "resourceType": "Condition",
      "id": "numer-EXM165-Condition",
      "clinicalStatus": {
        "coding": [ {
          "system": "http://terminology.hl7.org/CodeSystem/condition-clinical",
          "code": "active",
          "display": "Active"
        } ],
        "text": "Active"
      },
      "verificationStatus": {
        "coding": [ {
          "system": "http://terminology.hl7.org/CodeSystem/condition-ver-status",
          "code": "confirmed",
          "display": "Confirmed"
        } ],
        "text": "Confirmed"
      },
      "severity": {
        "coding": [ {
          "system": "http://snomed.info/sct",
          "code": "6736007",
          "display": "Moderate"
        } ],
        "text": "Moderate"
      },
      "code": {
        "coding": [ {
          "system": "http://hl7.org/fhir/sid/icd-10-cm",
          "code": "I10",
          "display": "Hypertention"
        } ],
        "text": "Hypertention"
      },
      "subject": {
        "reference": "Patient/numer-EXM165-Patient"
      },
      "encounter": {
        "reference": "Encounter/numer-EXM165-Encounter"
      },
      "onsetPeriod": {
        "start": "2009-01-16T08:30:00"
      }
    },
    "request": {
      "method": "PUT",
      "url": "Condition/numer-EXM165-Condition"
    }
  }, {
    "resource": {
      "resourceType": "Encounter",
      "id": "numer-EXM165-Encounter",
      "text": {
        "status": "generated"
      },
      "status": "finished",
      "class": {
        "system": "http://terminology.hl7.org/CodeSystem/v3-ActCode",
        "code": "AMB",
        "display": "ambulatory"
      },
      "type": [ {
        "coding": [ {
          "system": "urn:oid:2.16.840.1.113883.6.12",
          "code": "99201",
          "display": "Office Visit"
        } ],
        "text": "Office Visit"
      } ],
      "subject": {
        "reference": "Patient/numer-EXM165-Patient"
      },
      "period": {
        "start": "2019-01-16T08:30:00",
        "end": "2019-01-20T08:30:00"
      }
    },
    "request": {
      "method": "PUT",
      "url": "Encounter/numer-EXM165-Encounter"
    }
  }, {
    "resource": {
      "resourceType": "Observation",
      "id": "numer-EXM165-Observation",
      "meta": {
        "profile": [ "http://hl7.org/fhir/StructureDefinition/vitalsigns" ]
      },
      "status": "final",
      "category": [ {
        "coding": [ {
          "system": "http://terminology.hl7.org/CodeSystem/observation-category",
          "code": "vital-signs",
          "display": "Vital Signs"
        } ]
      } ],
      "code": {
        "coding": [ {
          "system": "http://loinc.org",
          "code": "85354-9",
          "display": "Blood pressure panel with all children optional"
        } ]
      },
      "subject": {
        "reference": "Patient/numer-EXM165-Patient"
      },
      "encounter": {
        "reference": "Encounter/numer-EXM165-Encounter"
      },
      "effectiveDateTime": "2019-01-17T12:30:00",
      "interpretation": [ {
        "coding": [ {
          "system": "http://terminology.hl7.org/CodeSystem/v3-ObservationInterpretation",
          "code": "L",
          "display": "low"
        } ],
        "text": "Below low normal"
      } ],
      "component": [ {
        "code": {
          "coding": [ {
            "system": "http://loinc.org",
            "code": "8462-4",
            "display": "Diastolic blood pressure"
          } ]
        },
        "valueQuantity": {
          "value": 80,
          "unit": "mm[Hg]",
          "system": "http://unitsofmeasure.org",
          "code": "mm[Hg]"
        }
      } ]
    },
    "request": {
      "method": "PUT",
      "url": "Observation/numer-EXM165-Observation"
    }
  }, {
    "resource": {
      "resourceType": "Observation",
      "id": "numer-EXM165-ObservationSystolic",
      "meta": {
        "profile": [ "http://hl7.org/fhir/StructureDefinition/vitalsigns" ]
      },
      "status": "final",
      "category": [ {
        "coding": [ {
          "system": "http://terminology.hl7.org/CodeSystem/observation-category",
          "code": "vital-signs",
          "display": "Vital Signs"
        } ]
      } ],
      "code": {
        "coding": [ {
          "system": "http://loinc.org",
          "code": "85354-9",
          "display": "Blood pressure panel with all children optional"
        } ]
      },
      "subject": {
        "reference": "Patient/numer-EXM165-Patient"
      },
      "encounter": {
        "reference": "Encounter/numer-EXM165-Encounter"
      },
      "effectiveDateTime": "2019-01-17T12:30:00",
      "interpretation": [ {
        "coding": [ {
          "system": "http://terminology.hl7.org/CodeSystem/v3-ObservationInterpretation",
          "code": "L",
          "display": "low"
        } ],
        "text": "Below low normal"
      } ],
      "component": [ {
        "code": {
          "coding": [ {
            "system": "http://loinc.org",
            "code": "8480-6",
            "display": "Systolic blood pressure"
          } ]
        },
        "valueQuantity": {
          "value": 120,
          "unit": "mm[Hg]",
          "system": "http://unitsofmeasure.org",
          "code": "mm[Hg]"
        }
      } ]
    },
    "request": {
      "method": "PUT",
      "url": "Observation/numer-EXM165-ObservationSystolic"
    }
  }, {
    "resource": {
      "resourceType": "Patient",
      "id": "numer-EXM165-Patient",
      "text": {
        "status": "extensions"
      },
      "extension": [ {
        "url": "http://hl7.org/fhir/us/core/StructureDefinition/us-core-race",
        "extension": [ {
          "url": "ombCategory",
          "valueCoding": {
            "system": "urn:oid:2.16.840.1.113883.6.238",
            "code": "2106-3",
            "display": "White"
          }
        } ]
      }, {
        "url": "http://hl7.org/fhir/us/core/StructureDefinition/us-core-ethnicity",
        "extension": [ {
          "url": "ombCategory",
          "valueCoding": {
            "system": "urn:oid:2.16.840.1.113883.6.238",
            "code": "2135-2",
            "display": "Hispanic or Latino"
          }
        } ]
      } ],
      "active": true,
      "name": [ {
        "use": "official",
        "text": "BECK,TOM",
        "family": "BECK",
        "given": [ "TOM" ]
      } ],
      "gender": "male",
      "birthDate": "1965-06-30"
    },
    "request": {
      "method": "PUT",
      "url": "Patient/numer-EXM165-Patient"
    }
  } ]
}