{
  "resourceType": "Bundle",
  "id": "tests-denomexcl-EXM165-Patient-bundle",
  "type": "transaction",
  "entry": [ {
    "resource": {
      "resourceType": "DiagnosticReport",
      "id": "denomexcl-EXM165-DiagnosticReport",
      "text": {
        "status": "generated"
      },
      "status": "final",
      "category": [ {
        "coding": [ {
          "system": "http://terminology.hl7.org/CodeSystem/v2-0074",
          "code": "LAB"
        } ]
      } ],
      "code": {
        "coding": [ {
          "system": "http://loinc.org",
          "code": "34714-6",
          "display": "INR in Blood by Coagulation assay"
        } ]
      },
      "subject": {
        "reference": "Patient/denomexcl-EXM165-Patient"
      },
      "issued": "2019-01-17T12:30:00Z",
      "result": [ {
        "reference": "Observation/denomexcl-EXM165-Observation"
      } ]
    },
    "request": {
      "method": "PUT",
      "url": "DiagnosticReport/denomexcl-EXM165-DiagnosticReport"
    }
  }, {
    "resource": {
      "resourceType": "Encounter",
      "id": "denomexcl-EXM165-Encounter",
      "text": {
        "status": "generated"
      },
      "status": "finished",
      "class": {
        "system": "http://terminology.hl7.org/CodeSystem/v3-ActCode",
        "code": "IMP",
        "display": "inpatient encounter"
      },
      "type": [ {
        "coding": [ {
          "system": "urn:oid:2.16.840.1.113883.6.96",
          "code": "32485007",
          "display": "Encounter Inpatient"
        } ],
        "text": "Inpatient Admission"
      } ],
      "subject": {
        "reference": "Patient/denomexcl-EXM165-Patient"
      },
      "period": {
        "start": "2019-01-16T08:30:00",
        "end": "2019-01-20T08:30:00"
      },
      "diagnosis": [ {
        "condition": {
          "display": "Cardiac arrest as a complication of care (disorder)"
        },
        "use": {
          "coding": [ {
            "system": "2.16.840.1.113883.6.96",
            "code": "213213007",
            "display": "Cardiopulmonary arrest"
          } ]
        }
      } ],
      "hospitalization": {
        "dischargeDisposition": {
          "coding": [ {
            "system": "http://snomed.info/sct",
            "code": "306701001",
            "display": "Discharge to community hospital"
          } ]
        }
      }
    },
    "request": {
      "method": "PUT",
      "url": "Encounter/denomexcl-EXM165-Encounter"
    }
  }, {
    "resource": {
      "resourceType": "Observation",
      "id": "denomexcl-EXM165-Observation",
      "text": {
        "status": "generated"
      },
      "status": "final",
      "code": {
        "coding": [ {
          "system": "http://loinc.org",
          "code": "34714-6",
          "display": "INR in Blood by Coagulation assay"
        } ]
      },
      "subject": {
        "reference": "Patient/denomexcl-EXM165-Patient"
      },
      "issued": "2019-01-17T12:30:00",
      "valueQuantity": {
        "value": 3.5
      }
    },
    "request": {
      "method": "PUT",
      "url": "Observation/denomexcl-EXM165-Observation"
    }
  }, {
    "resource": {
      "resourceType": "Patient",
      "id": "denomexcl-EXM165-Patient",
      "extension": [ {
        "url": "http://hl7.org/fhir/us/core/StructureDefinition/us-core-race",
        "extension": [ {
          "url": "ombCategory",
          "valueCoding": {
            "system": "urn:oid:2.16.840.1.113883.6.238",
            "code": "2106-3",
            "display": "White"
          }
        } ]
      }, {
        "url": "http://hl7.org/fhir/us/core/StructureDefinition/us-core-ethnicity",
        "extension": [ {
          "url": "ombCategory",
          "valueCoding": {
            "system": "urn:oid:2.16.840.1.113883.6.238",
            "code": "2186-5",
            "display": "Not Hispanic/Latino"
          }
        } ]
      } ],
      "active": true,
      "name": [ {
        "use": "official",
        "text": "BECK,TOM",
        "family": "BECK",
        "given": [ "TOM" ]
      } ],
      "gender": "male",
      "birthDate": "1965-06-30"
    },
    "request": {
      "method": "PUT",
      "url": "Patient/denomexcl-EXM165-Patient"
    }
  }, {
    "resource": {
      "resourceType": "Procedure",
      "id": "denomexcl-EXM165-PrincipalProcedure",
      "text": {
        "status": "generated"
      },
      "partOf": [ {
        "reference": "Procedure/denomexcl-EXM165-Procedure",
        "display": "General or Neuraxial Anesthesia"
      } ],
      "status": "completed",
      "code": {
        "coding": [ {
          "system": "http://snomed.info/sct",
          "code": "47458005",
          "display": "Repair of hip joint (procedure)"
        } ],
        "text": "Hip Fracture Surgery"
      },
      "subject": {
        "reference": "Patient/denomexcl-EXM165-Patient"
      },
      "performedPeriod": {
        "start": "2019-01-17T09:00:00",
        "end": "2019-01-17T10:00:00"
      }
    },
    "request": {
      "method": "PUT",
      "url": "Procedure/denomexcl-EXM165-PrincipalProcedure"
    }
  }, {
    "resource": {
      "resourceType": "Procedure",
      "id": "denomexcl-EXM165-Procedure",
      "status": "completed",
      "code": {
        "coding": [ {
          "system": "http://snomed.info/sct",
          "code": "112943005",
          "display": "Epidural injection of anesthetic substance, diagnostic, caudal, continuous (procedure)"
        } ],
        "text": "General or Neuraxial Anesthesia"
      },
      "subject": {
        "reference": "Patient/denomexcl-EXM165-Patient"
      },
      "encounter": {
        "reference": "Encounter/denomexcl-EXM165-Encounter"
      },
      "performedPeriod": {
        "start": "2019-01-17T08:30:00",
        "end": "2019-01-17T10:30:00"
      }
    },
    "request": {
      "method": "PUT",
      "url": "Procedure/denomexcl-EXM165-Procedure"
    }
  } ]
}