{
  "resourceType": "Bundle",
  "id": "tests-dispense-Testing-bundle",
  "type": "transaction",
  "entry": [ {
    "resource": {
      "resourceType": "Medication",
      "id": "dispense-Testing-2",
      "meta": {
        "profile": [ "http://hl7.org/fhir/us/qicore/StructureDefinition/qicore-medication" ]
      },
      "code": {
        "coding": [ {
          "system": "http://www.nlm.nih.gov/research/umls/rxnorm",
          "code": "1014599",
          "display": "acetaminophen 300 MG / oxycodone hydrochloride 10 MG Oral Tablet"
        } ]
      },
      "form": {
        "coding": [ {
          "system": "http://snomed.info/sct",
          "code": "385055001",
          "display": "Tablet dose form (qualifier value)"
        } ]
      }
    },
    "request": {
      "method": "PUT",
      "url": "Medication/dispense-Testing-2"
    }
  }, {
    "resource": {
      "resourceType": "MedicationDispense",
      "id": "dispense-Testing-1",
      "status": "completed",
      "medicationReference": {
        "reference": "Medication/dispense-Testing-2"
      },
      "subject": {
        "reference": "Patient/dispense-Testing"
      },
      "quantity": {
        "value": 100,
        "unit": "ml",
        "system": "http://unitsofmeasure.org",
        "code": "ml"
      },
      "daysSupply": {
        "value": 30,
        "unit": "Day",
        "system": "http://unitsofmeasure.org",
        "code": "d"
      },
      "whenPrepared": "2019-08-30T16:20:00+00:00",
      "whenHandedOver": "2019-08-31T10:20:00+00:00"
    },
    "request": {
      "method": "PUT",
      "url": "MedicationDispense/dispense-Testing-1"
    }
  }, {
    "resource": {
      "resourceType": "Patient",
      "id": "dispense-Testing",
      "text": {
        "status": "generated",
        "div": "<div xmlns=\"http://www.w3.org/1999/xhtml\">\n            <p><b>Person Information</b></p>\n\t\t\t<blockquote>\n\t\t\t\t<p><b>Name:</b> Betsy Smith-Johnson</p>\n\t\t\t\t<p><b>Identifier | Type:</b> 123456ABC | MRN</p>\n\t\t\t\t<p><b>Phone:</b> (210) 222-1111</p>\n\t\t\t\t<p><b>Date of Birth:</b> 1950-11-01</p>\n\t\t\t\t<p><b>Address:</b> 111 Maple Ct, San Antonio, TX 78212</p>\n\t\t\t\t<p><b>Emergency Contact Name:</b> Charles Johnson</p>\n\t\t\t\t<p><b>Emergency Contact Relationship:</b> son</p>\n\t\t\t\t<p><b>Emergency Contact Phone Number:</b> (210) 222-3333</p>\n\t\t\t</blockquote>\n          </div>"
      },
      "extension": [ {
        "url": "http://hl7.org/fhir/us/core/StructureDefinition/us-core-race",
        "extension": [ {
          "url": "ombCategory",
          "valueCoding": {
            "system": "urn:oid:2.16.840.1.113883.6.238",
            "code": "2054-5",
            "display": "Black or African American"
          }
        } ]
      } ],
      "identifier": [ {
        "type": {
          "coding": [ {
            "system": "http://terminology.hl7.org/CodeSystem/v2-0203",
            "code": "MR",
            "display": "Medical record number"
          } ]
        },
        "system": "http://www.example.org/Codesystem",
        "value": "123456ABC"
      } ],
      "name": [ {
        "text": "Betsy Smith-Johnson",
        "family": "Smith-Johnson",
        "given": [ "Betsy" ]
      } ],
      "telecom": [ {
        "system": "phone",
        "value": "(210)222-1111",
        "use": "mobile"
      } ],
      "gender": "female",
      "birthDate": "1950-11-01",
      "address": [ {
        "text": "111 Maple Ct, San Antonio, TX 78212",
        "line": [ "111 Maple Ct" ],
        "city": "San Antonio",
        "district": "Bexar",
        "state": "TX",
        "postalCode": "78212"
      } ],
      "maritalStatus": {
        "coding": [ {
          "system": "http://terminology.hl7.org/CodeSystem/v3-MaritalStatus",
          "code": "U",
          "display": "Unmarried"
        } ],
        "text": "Not Married"
      },
      "contact": [ {
        "relationship": [ {
          "coding": [ {
            "system": "http://terminology.hl7.org/fhir/v2-0131",
            "code": "C",
            "display": "Emergency Contact"
          } ]
        }, {
          "coding": [ {
            "system": "http://terminology.hl7.org/fhir/v3-RoleCode",
            "code": "GUARD",
            "display": "guardian"
          } ]
        }, {
          "coding": [ {
            "system": "http://terminology.hl7.org/fhir/v3-RoleCode",
            "code": "SONC",
            "display": "son"
          } ]
        } ],
        "name": {
          "text": "Charles Johnson",
          "family": "Johnson",
          "given": [ "Charles" ]
        },
        "telecom": [ {
          "system": "phone",
          "value": "(210) 222-3333"
        } ],
        "address": {
          "text": "100 Montana St., San Antonio, TX 78203"
        }
      }, {
        "relationship": [ {
          "coding": [ {
            "system": "http://terminology.hl7.org/CodeSystem/v2-0131",
            "code": "DAUC",
            "display": "Daughter"
          } ]
        } ],
        "name": {
          "text": "Debra Johnson",
          "family": "Johnson",
          "given": [ "Debra" ]
        },
        "telecom": [ {
          "system": "phone",
          "value": "(410) 444-5555"
        } ],
        "address": {
          "text": "333 W. Camden St., Baltimore, MD 21201"
        }
      } ],
      "communication": [ {
        "language": {
          "coding": [ {
            "system": "urn:oid:2.16.840.1.113883.1.11.11526",
            "code": "en",
            "display": "English"
          } ]
        },
        "preferred": true
      } ]
    },
    "request": {
      "method": "PUT",
      "url": "Patient/dispense-Testing"
    }
  }, {
    "resource": {
      "resourceType": "Bundle",
      "id": "tests-Medication-bundle",
      "type": "transaction",
      "entry": [ {
        "resource": {
          "resourceType": "Medication",
          "id": "dispense-Testing-2",
          "meta": {
            "profile": [ "http://hl7.org/fhir/us/qicore/StructureDefinition/qicore-medication" ]
          },
          "code": {
            "coding": [ {
              "system": "http://www.nlm.nih.gov/research/umls/rxnorm",
              "code": "1014599",
              "display": "acetaminophen 300 MG / oxycodone hydrochloride 10 MG Oral Tablet"
            } ]
          },
          "form": {
            "coding": [ {
              "system": "http://snomed.info/sct",
              "code": "385055001",
              "display": "Tablet dose form (qualifier value)"
            } ]
          }
        },
        "request": {
          "method": "PUT",
          "url": "Medication/dispense-Testing-2"
        }
      } ]
    },
    "request": {
      "method": "PUT",
      "url": "Bundle/tests-Medication-bundle"
    }
  }, {
    "resource": {
      "resourceType": "Bundle",
      "id": "tests-MedicationDispense-bundle",
      "type": "transaction",
      "entry": [ {
        "resource": {
          "resourceType": "MedicationDispense",
          "id": "dispense-Testing-1",
          "status": "completed",
          "medicationReference": {
            "reference": "Medication/dispense-Testing-2"
          },
          "subject": {
            "reference": "Patient/dispense-Testing"
          },
          "quantity": {
            "value": 100,
            "unit": "ml",
            "system": "http://unitsofmeasure.org",
            "code": "ml"
          },
          "daysSupply": {
            "value": 30,
            "unit": "Day",
            "system": "http://unitsofmeasure.org",
            "code": "d"
          },
          "whenPrepared": "2019-08-30T16:20:00+00:00",
          "whenHandedOver": "2019-08-31T10:20:00+00:00"
        },
        "request": {
          "method": "PUT",
          "url": "MedicationDispense/dispense-Testing-1"
        }
      } ]
    },
    "request": {
      "method": "PUT",
      "url": "Bundle/tests-MedicationDispense-bundle"
    }
  }, {
    "resource": {
      "resourceType": "Bundle",
      "id": "tests-Patient-bundle",
      "type": "transaction",
      "entry": [ {
        "resource": {
          "resourceType": "Patient",
          "id": "dispense-Testing",
          "text": {
            "status": "generated",
            "div": "<div xmlns=\"http://www.w3.org/1999/xhtml\">\n            <p><b>Person Information</b></p>\n\t\t\t<blockquote>\n\t\t\t\t<p><b>Name:</b> Betsy Smith-Johnson</p>\n\t\t\t\t<p><b>Identifier | Type:</b> 123456ABC | MRN</p>\n\t\t\t\t<p><b>Phone:</b> (210) 222-1111</p>\n\t\t\t\t<p><b>Date of Birth:</b> 1950-11-01</p>\n\t\t\t\t<p><b>Address:</b> 111 Maple Ct, San Antonio, TX 78212</p>\n\t\t\t\t<p><b>Emergency Contact Name:</b> Charles Johnson</p>\n\t\t\t\t<p><b>Emergency Contact Relationship:</b> son</p>\n\t\t\t\t<p><b>Emergency Contact Phone Number:</b> (210) 222-3333</p>\n\t\t\t</blockquote>\n          </div>"
          },
          "extension": [ {
            "url": "http://hl7.org/fhir/us/core/StructureDefinition/us-core-race",
            "extension": [ {
              "url": "ombCategory",
              "valueCoding": {
                "system": "urn:oid:2.16.840.1.113883.6.238",
                "code": "2054-5",
                "display": "Black or African American"
              }
            } ]
          } ],
          "identifier": [ {
            "type": {
              "coding": [ {
                "system": "http://terminology.hl7.org/CodeSystem/v2-0203",
                "code": "MR",
                "display": "Medical record number"
              } ]
            },
            "system": "http://www.example.org/Codesystem",
            "value": "123456ABC"
          } ],
          "name": [ {
            "text": "Betsy Smith-Johnson",
            "family": "Smith-Johnson",
            "given": [ "Betsy" ]
          } ],
          "telecom": [ {
            "system": "phone",
            "value": "(210)222-1111",
            "use": "mobile"
          } ],
          "gender": "female",
          "birthDate": "1950-11-01",
          "address": [ {
            "text": "111 Maple Ct, San Antonio, TX 78212",
            "line": [ "111 Maple Ct" ],
            "city": "San Antonio",
            "district": "Bexar",
            "state": "TX",
            "postalCode": "78212"
          } ],
          "maritalStatus": {
            "coding": [ {
              "system": "http://terminology.hl7.org/CodeSystem/v3-MaritalStatus",
              "code": "U",
              "display": "Unmarried"
            } ],
            "text": "Not Married"
          },
          "contact": [ {
            "relationship": [ {
              "coding": [ {
                "system": "http://terminology.hl7.org/fhir/v2-0131",
                "code": "C",
                "display": "Emergency Contact"
              } ]
            }, {
              "coding": [ {
                "system": "http://terminology.hl7.org/fhir/v3-RoleCode",
                "code": "GUARD",
                "display": "guardian"
              } ]
            }, {
              "coding": [ {
                "system": "http://terminology.hl7.org/fhir/v3-RoleCode",
                "code": "SONC",
                "display": "son"
              } ]
            } ],
            "name": {
              "text": "Charles Johnson",
              "family": "Johnson",
              "given": [ "Charles" ]
            },
            "telecom": [ {
              "system": "phone",
              "value": "(210) 222-3333"
            } ],
            "address": {
              "text": "100 Montana St., San Antonio, TX 78203"
            }
          }, {
            "relationship": [ {
              "coding": [ {
                "system": "http://terminology.hl7.org/CodeSystem/v2-0131",
                "code": "DAUC",
                "display": "Daughter"
              } ]
            } ],
            "name": {
              "text": "Debra Johnson",
              "family": "Johnson",
              "given": [ "Debra" ]
            },
            "telecom": [ {
              "system": "phone",
              "value": "(410) 444-5555"
            } ],
            "address": {
              "text": "333 W. Camden St., Baltimore, MD 21201"
            }
          } ],
          "communication": [ {
            "language": {
              "coding": [ {
                "system": "urn:oid:2.16.840.1.113883.1.11.11526",
                "code": "en",
                "display": "English"
              } ]
            },
            "preferred": true
          } ]
        },
        "request": {
          "method": "PUT",
          "url": "Patient/dispense-Testing"
        }
      } ]
    },
    "request": {
      "method": "PUT",
      "url": "Bundle/tests-Patient-bundle"
    }
  } ]
}