{
  "resourceType": "MeasureReport",
  "contained": [ {
    "resourceType": "Observation",
    "id": "d3101308-1489-4208-8fb0-b03c46384143",
    "extension": [ {
      "url": "http://hl7.org/fhir/StructureDefinition/cqf-measureInfo",
      "extension": [ {
        "url": "measure",
        "valueCanonical": "http://hl7.org/fhir/us/cqfmeasures/http://ecqi.healthit.gov/ecqms/Measure/PrimaryCariesPreventionasOfferedbyPCPsincludingDentistsFHIR"
      }, {
        "url": "populationId",
        "valueString": "sde-race"
      } ]
    } ],
    "status": "final",
    "code": {
      "text": "sde-race"
    },
    "valueCodeableConcept": {
      "coding": [ {
        "system": "urn:oid:2.16.840.1.113883.6.238",
        "code": "2028-9",
        "display": "Asian"
      } ]
    }
  }, {
    "resourceType": "Observation",
    "id": "1001ce58-629e-4c63-be8f-3e3a2f52ede4",
    "extension": [ {
      "url": "http://hl7.org/fhir/StructureDefinition/cqf-measureInfo",
      "extension": [ {
        "url": "measure",
        "valueCanonical": "http://hl7.org/fhir/us/cqfmeasures/http://ecqi.healthit.gov/ecqms/Measure/PrimaryCariesPreventionasOfferedbyPCPsincludingDentistsFHIR"
      }, {
        "url": "populationId",
        "valueString": "sde-ethnicity"
      } ]
    } ],
    "status": "final",
    "code": {
      "text": "sde-ethnicity"
    },
    "valueCodeableConcept": {
      "coding": [ {
        "system": "urn:oid:2.16.840.1.113883.6.238",
        "code": "2186-5",
        "display": "Not Hispanic or Latino"
      } ]
    }
  }, {
    "resourceType": "Observation",
    "id": "7ec30e08-f3a3-4e0e-b32f-b1b0d42cf869",
    "extension": [ {
      "url": "http://hl7.org/fhir/StructureDefinition/cqf-measureInfo",
      "extension": [ {
        "url": "measure",
        "valueCanonical": "http://hl7.org/fhir/us/cqfmeasures/http://ecqi.healthit.gov/ecqms/Measure/PrimaryCariesPreventionasOfferedbyPCPsincludingDentistsFHIR"
      }, {
        "url": "populationId",
        "valueString": "sde-sex"
      } ]
    } ],
    "status": "final",
    "code": {
      "text": "sde-sex"
    },
    "valueCodeableConcept": {
      "coding": [ {
        "code": "M"
      } ]
    }
  } ],
  "status": "complete",
  "type": "individual",
  "measure": "http://ecqi.healthit.gov/ecqms/Measure/PrimaryCariesPreventionasOfferedbyPCPsincludingDentistsFHIR",
  "subject": {
    "reference": "Patient/denomexcl-EXM74-strat3-case15"
  },
  "period": {
    "start": "2019-01-01T00:00:00-06:00",
    "end": "2019-12-31T00:00:00-06:00"
  },
  "group": [ {
    "population": [ {
      "code": {
        "coding": [ {
          "system": "http://terminology.hl7.org/CodeSystem/measure-population",
          "code": "initial-population",
          "display": "Initial Population"
        } ]
      },
      "count": 1
    }, {
      "code": {
        "coding": [ {
          "system": "http://terminology.hl7.org/CodeSystem/measure-population",
          "code": "numerator",
          "display": "Numerator"
        } ]
      },
      "count": 0
    }, {
      "code": {
        "coding": [ {
          "system": "http://terminology.hl7.org/CodeSystem/measure-population",
          "code": "denominator",
          "display": "Denominator"
        } ]
      },
      "count": 0
    }, {
      "code": {
        "coding": [ {
          "system": "http://terminology.hl7.org/CodeSystem/measure-population",
          "code": "denominator-exclusion",
          "display": "Denominator Exclusion"
        } ]
      },
      "count": 1
    } ]
  } ],
  "evaluatedResource": [ {
    "reference": "#d3101308-1489-4208-8fb0-b03c46384143"
  }, {
    "reference": "#1001ce58-629e-4c63-be8f-3e3a2f52ede4"
  }, {
    "reference": "#7ec30e08-f3a3-4e0e-b32f-b1b0d42cf869"
  }, {
    "extension": [ {
      "url": "http://hl7.org/fhir/us/davinci-deqm/StructureDefinition/extension-populationReference",
      "valueString": "initial-population"
    }, {
      "url": "http://hl7.org/fhir/us/davinci-deqm/StructureDefinition/extension-populationReference",
      "valueString": "denominator"
    } ],
    "reference": "Encounter/denomexcl-EXM74-strat3-case15-Encounter"
  }, {
    "extension": [ {
      "url": "http://hl7.org/fhir/us/davinci-deqm/StructureDefinition/extension-populationReference",
      "valueString": "initial-population"
    }, {
      "url": "http://hl7.org/fhir/us/davinci-deqm/StructureDefinition/extension-populationReference",
      "valueString": "denominator"
    } ],
    "reference": "Patient/denomexcl-EXM74-strat3-case15"
  }, {
    "extension": [ {
      "url": "http://hl7.org/fhir/us/davinci-deqm/StructureDefinition/extension-populationReference",
      "valueString": "initial-population"
    }, {
      "url": "http://hl7.org/fhir/us/davinci-deqm/StructureDefinition/extension-populationReference",
      "valueString": "denominator"
    } ],
    "reference": "Encounter/denomexcl-EXM74-strat3-case15-Encounter"
  }, {
    "extension": [ {
      "url": "http://hl7.org/fhir/us/davinci-deqm/StructureDefinition/extension-populationReference",
      "valueString": "initial-population"
    }, {
      "url": "http://hl7.org/fhir/us/davinci-deqm/StructureDefinition/extension-populationReference",
      "valueString": "denominator"
    } ],
    "reference": "Patient/denomexcl-EXM74-strat3-case15"
  }, {
    "extension": [ {
      "url": "http://hl7.org/fhir/us/davinci-deqm/StructureDefinition/extension-populationReference",
      "valueString": "denominator"
    } ],
    "reference": "Procedure/denomexcl-EXM74-strat3-case15-Procedure"
  } ]
}