{
  "resourceType": "MeasureReport",
  "contained": [ {
    "resourceType": "Observation",
    "id": "fbc0ce7b-60b7-4fc8-8dfe-f8527f44f563",
    "extension": [ {
      "url": "http://hl7.org/fhir/StructureDefinition/cqf-measureInfo",
      "extension": [ {
        "url": "measure",
        "valueCanonical": "http://hl7.org/fhir/us/cqfmeasures/http://ecqi.healthit.gov/ecqms/Measure/PrimaryCariesPreventionasOfferedbyPCPsincludingDentistsFHIR"
      }, {
        "url": "populationId",
        "valueString": "sde-race"
      } ]
    } ],
    "status": "final",
    "code": {
      "text": "sde-race"
    },
    "valueCodeableConcept": {
      "coding": [ {
        "system": "urn:oid:2.16.840.1.113883.6.238",
        "code": "2028-9",
        "display": "Asian"
      } ]
    }
  }, {
    "resourceType": "Observation",
    "id": "e9cb3a84-142a-48e8-954d-cff57746443d",
    "extension": [ {
      "url": "http://hl7.org/fhir/StructureDefinition/cqf-measureInfo",
      "extension": [ {
        "url": "measure",
        "valueCanonical": "http://hl7.org/fhir/us/cqfmeasures/http://ecqi.healthit.gov/ecqms/Measure/PrimaryCariesPreventionasOfferedbyPCPsincludingDentistsFHIR"
      }, {
        "url": "populationId",
        "valueString": "sde-ethnicity"
      } ]
    } ],
    "status": "final",
    "code": {
      "text": "sde-ethnicity"
    },
    "valueCodeableConcept": {
      "coding": [ {
        "system": "urn:oid:2.16.840.1.113883.6.238",
        "code": "2186-5",
        "display": "Not Hispanic or Latino"
      } ]
    }
  }, {
    "resourceType": "Observation",
    "id": "d45b23f2-9f05-4274-a525-7625173253d8",
    "extension": [ {
      "url": "http://hl7.org/fhir/StructureDefinition/cqf-measureInfo",
      "extension": [ {
        "url": "measure",
        "valueCanonical": "http://hl7.org/fhir/us/cqfmeasures/http://ecqi.healthit.gov/ecqms/Measure/PrimaryCariesPreventionasOfferedbyPCPsincludingDentistsFHIR"
      }, {
        "url": "populationId",
        "valueString": "sde-sex"
      } ]
    } ],
    "status": "final",
    "code": {
      "text": "sde-sex"
    },
    "valueCodeableConcept": {
      "coding": [ {
        "code": "M"
      } ]
    }
  } ],
  "status": "complete",
  "type": "individual",
  "measure": "http://ecqi.healthit.gov/ecqms/Measure/PrimaryCariesPreventionasOfferedbyPCPsincludingDentistsFHIR",
  "subject": {
    "reference": "Patient/denom-EXM74-strat3-case6"
  },
  "period": {
    "start": "2019-01-01T00:00:00-06:00",
    "end": "2019-12-31T00:00:00-06:00"
  },
  "group": [ {
    "population": [ {
      "code": {
        "coding": [ {
          "system": "http://terminology.hl7.org/CodeSystem/measure-population",
          "code": "initial-population",
          "display": "Initial Population"
        } ]
      },
      "count": 1
    }, {
      "code": {
        "coding": [ {
          "system": "http://terminology.hl7.org/CodeSystem/measure-population",
          "code": "numerator",
          "display": "Numerator"
        } ]
      },
      "count": 0
    }, {
      "code": {
        "coding": [ {
          "system": "http://terminology.hl7.org/CodeSystem/measure-population",
          "code": "denominator",
          "display": "Denominator"
        } ]
      },
      "count": 1
    }, {
      "code": {
        "coding": [ {
          "system": "http://terminology.hl7.org/CodeSystem/measure-population",
          "code": "denominator-exclusion",
          "display": "Denominator Exclusion"
        } ]
      },
      "count": 0
    } ],
    "measureScore": {
      "value": 0.0
    }
  } ],
  "evaluatedResource": [ {
    "reference": "#fbc0ce7b-60b7-4fc8-8dfe-f8527f44f563"
  }, {
    "reference": "#e9cb3a84-142a-48e8-954d-cff57746443d"
  }, {
    "reference": "#d45b23f2-9f05-4274-a525-7625173253d8"
  }, {
    "extension": [ {
      "url": "http://hl7.org/fhir/us/davinci-deqm/StructureDefinition/extension-populationReference",
      "valueString": "initial-population"
    }, {
      "url": "http://hl7.org/fhir/us/davinci-deqm/StructureDefinition/extension-populationReference",
      "valueString": "denominator"
    } ],
    "reference": "Encounter/denom-EXM74-strat3-case6-Encounter"
  }, {
    "extension": [ {
      "url": "http://hl7.org/fhir/us/davinci-deqm/StructureDefinition/extension-populationReference",
      "valueString": "initial-population"
    }, {
      "url": "http://hl7.org/fhir/us/davinci-deqm/StructureDefinition/extension-populationReference",
      "valueString": "denominator"
    } ],
    "reference": "Patient/denom-EXM74-strat3-case6"
  }, {
    "extension": [ {
      "url": "http://hl7.org/fhir/us/davinci-deqm/StructureDefinition/extension-populationReference",
      "valueString": "initial-population"
    }, {
      "url": "http://hl7.org/fhir/us/davinci-deqm/StructureDefinition/extension-populationReference",
      "valueString": "denominator"
    } ],
    "reference": "Encounter/denom-EXM74-strat3-case6-Encounter"
  }, {
    "extension": [ {
      "url": "http://hl7.org/fhir/us/davinci-deqm/StructureDefinition/extension-populationReference",
      "valueString": "initial-population"
    }, {
      "url": "http://hl7.org/fhir/us/davinci-deqm/StructureDefinition/extension-populationReference",
      "valueString": "denominator"
    } ],
    "reference": "Patient/denom-EXM74-strat3-case6"
  } ]
}