{
  "resourceType": "MeasureReport",
  "contained": [ {
    "resourceType": "Observation",
    "id": "5781daf6-dad1-4852-9737-104ef5f39e21",
    "extension": [ {
      "url": "http://hl7.org/fhir/StructureDefinition/cqf-measureInfo",
      "extension": [ {
        "url": "measure",
        "valueCanonical": "http://hl7.org/fhir/us/cqfmeasures/http://ecqi.healthit.gov/ecqms/Measure/PrimaryCariesPreventionasOfferedbyPCPsincludingDentistsFHIR"
      }, {
        "url": "populationId",
        "valueString": "sde-race"
      } ]
    } ],
    "status": "final",
    "code": {
      "text": "sde-race"
    },
    "valueCodeableConcept": {
      "coding": [ {
        "system": "urn:oid:2.16.840.1.113883.6.238",
        "code": "2106-3",
        "display": "White"
      } ]
    }
  }, {
    "resourceType": "Observation",
    "id": "7aace6a6-4148-4aea-b7fc-ad7eec385cba",
    "extension": [ {
      "url": "http://hl7.org/fhir/StructureDefinition/cqf-measureInfo",
      "extension": [ {
        "url": "measure",
        "valueCanonical": "http://hl7.org/fhir/us/cqfmeasures/http://ecqi.healthit.gov/ecqms/Measure/PrimaryCariesPreventionasOfferedbyPCPsincludingDentistsFHIR"
      }, {
        "url": "populationId",
        "valueString": "sde-ethnicity"
      } ]
    } ],
    "status": "final",
    "code": {
      "text": "sde-ethnicity"
    },
    "valueCodeableConcept": {
      "coding": [ {
        "system": "urn:oid:2.16.840.1.113883.6.238",
        "code": "2186-5",
        "display": "Not Hispanic or Latino"
      } ]
    }
  }, {
    "resourceType": "Observation",
    "id": "0dc64f35-0fae-45ae-9b35-17c59f6cdedc",
    "extension": [ {
      "url": "http://hl7.org/fhir/StructureDefinition/cqf-measureInfo",
      "extension": [ {
        "url": "measure",
        "valueCanonical": "http://hl7.org/fhir/us/cqfmeasures/http://ecqi.healthit.gov/ecqms/Measure/PrimaryCariesPreventionasOfferedbyPCPsincludingDentistsFHIR"
      }, {
        "url": "populationId",
        "valueString": "sde-sex"
      } ]
    } ],
    "status": "final",
    "code": {
      "text": "sde-sex"
    },
    "valueCodeableConcept": {
      "coding": [ {
        "code": "M"
      } ]
    }
  } ],
  "status": "complete",
  "type": "individual",
  "measure": "http://ecqi.healthit.gov/ecqms/Measure/PrimaryCariesPreventionasOfferedbyPCPsincludingDentistsFHIR",
  "subject": {
    "reference": "Patient/numer-EXM74-strat1-case7"
  },
  "period": {
    "start": "2019-01-01T00:00:00-06:00",
    "end": "2019-12-31T00:00:00-06:00"
  },
  "group": [ {
    "population": [ {
      "code": {
        "coding": [ {
          "system": "http://terminology.hl7.org/CodeSystem/measure-population",
          "code": "initial-population",
          "display": "Initial Population"
        } ]
      },
      "count": 1
    }, {
      "code": {
        "coding": [ {
          "system": "http://terminology.hl7.org/CodeSystem/measure-population",
          "code": "numerator",
          "display": "Numerator"
        } ]
      },
      "count": 1
    }, {
      "code": {
        "coding": [ {
          "system": "http://terminology.hl7.org/CodeSystem/measure-population",
          "code": "denominator",
          "display": "Denominator"
        } ]
      },
      "count": 1
    }, {
      "code": {
        "coding": [ {
          "system": "http://terminology.hl7.org/CodeSystem/measure-population",
          "code": "denominator-exclusion",
          "display": "Denominator Exclusion"
        } ]
      },
      "count": 0
    } ],
    "measureScore": {
      "value": 1.0
    }
  } ],
  "evaluatedResource": [ {
    "reference": "#5781daf6-dad1-4852-9737-104ef5f39e21"
  }, {
    "reference": "#7aace6a6-4148-4aea-b7fc-ad7eec385cba"
  }, {
    "reference": "#0dc64f35-0fae-45ae-9b35-17c59f6cdedc"
  }, {
    "extension": [ {
      "url": "http://hl7.org/fhir/us/davinci-deqm/StructureDefinition/extension-populationReference",
      "valueString": "initial-population"
    }, {
      "url": "http://hl7.org/fhir/us/davinci-deqm/StructureDefinition/extension-populationReference",
      "valueString": "denominator"
    } ],
    "reference": "Encounter/numer-EXM74-strat1-case7-Encounter"
  }, {
    "extension": [ {
      "url": "http://hl7.org/fhir/us/davinci-deqm/StructureDefinition/extension-populationReference",
      "valueString": "initial-population"
    }, {
      "url": "http://hl7.org/fhir/us/davinci-deqm/StructureDefinition/extension-populationReference",
      "valueString": "denominator"
    } ],
    "reference": "Patient/numer-EXM74-strat1-case7"
  }, {
    "extension": [ {
      "url": "http://hl7.org/fhir/us/davinci-deqm/StructureDefinition/extension-populationReference",
      "valueString": "initial-population"
    }, {
      "url": "http://hl7.org/fhir/us/davinci-deqm/StructureDefinition/extension-populationReference",
      "valueString": "denominator"
    } ],
    "reference": "Encounter/numer-EXM74-strat1-case7-Encounter"
  }, {
    "extension": [ {
      "url": "http://hl7.org/fhir/us/davinci-deqm/StructureDefinition/extension-populationReference",
      "valueString": "initial-population"
    }, {
      "url": "http://hl7.org/fhir/us/davinci-deqm/StructureDefinition/extension-populationReference",
      "valueString": "denominator"
    } ],
    "reference": "Patient/numer-EXM74-strat1-case7"
  }, {
    "extension": [ {
      "url": "http://hl7.org/fhir/us/davinci-deqm/StructureDefinition/extension-populationReference",
      "valueString": "numerator"
    } ],
    "reference": "Procedure/numer-EXM74-strat1-case7-Procedure"
  } ]
}