{
  "resourceType": "MeasureReport",
  "contained": [ {
    "resourceType": "Observation",
    "id": "389f3ea6-51da-4b03-bfa9-2c8df338dfda",
    "extension": [ {
      "url": "http://hl7.org/fhir/StructureDefinition/cqf-measureInfo",
      "extension": [ {
        "url": "measure",
        "valueCanonical": "http://hl7.org/fhir/us/cqfmeasures/http://ecqi.healthit.gov/ecqms/Measure/PrimaryCariesPreventionasOfferedbyPCPsincludingDentistsFHIR"
      }, {
        "url": "populationId",
        "valueString": "sde-race"
      } ]
    } ],
    "status": "final",
    "code": {
      "text": "sde-race"
    },
    "valueCodeableConcept": {
      "coding": [ {
        "system": "urn:oid:2.16.840.1.113883.6.238",
        "code": "2054-5",
        "display": "Black"
      } ]
    }
  }, {
    "resourceType": "Observation",
    "id": "e40c352e-d1c0-4fc8-b376-69845d086040",
    "extension": [ {
      "url": "http://hl7.org/fhir/StructureDefinition/cqf-measureInfo",
      "extension": [ {
        "url": "measure",
        "valueCanonical": "http://hl7.org/fhir/us/cqfmeasures/http://ecqi.healthit.gov/ecqms/Measure/PrimaryCariesPreventionasOfferedbyPCPsincludingDentistsFHIR"
      }, {
        "url": "populationId",
        "valueString": "sde-ethnicity"
      } ]
    } ],
    "status": "final",
    "code": {
      "text": "sde-ethnicity"
    },
    "valueCodeableConcept": {
      "coding": [ {
        "system": "urn:oid:2.16.840.1.113883.6.238",
        "code": "2186-5",
        "display": "Not Hispanic or Latino"
      } ]
    }
  }, {
    "resourceType": "Observation",
    "id": "4a7e090b-b74a-47b8-8fb0-cdeaaabfaa39",
    "extension": [ {
      "url": "http://hl7.org/fhir/StructureDefinition/cqf-measureInfo",
      "extension": [ {
        "url": "measure",
        "valueCanonical": "http://hl7.org/fhir/us/cqfmeasures/http://ecqi.healthit.gov/ecqms/Measure/PrimaryCariesPreventionasOfferedbyPCPsincludingDentistsFHIR"
      }, {
        "url": "populationId",
        "valueString": "sde-sex"
      } ]
    } ],
    "status": "final",
    "code": {
      "text": "sde-sex"
    },
    "valueCodeableConcept": {
      "coding": [ {
        "code": "F"
      } ]
    }
  } ],
  "status": "complete",
  "type": "individual",
  "measure": "http://ecqi.healthit.gov/ecqms/Measure/PrimaryCariesPreventionasOfferedbyPCPsincludingDentistsFHIR",
  "subject": {
    "reference": "Patient/denom-EXM74-strat2-case3"
  },
  "period": {
    "start": "2019-01-01T00:00:00-06:00",
    "end": "2019-12-31T00:00:00-06:00"
  },
  "group": [ {
    "population": [ {
      "code": {
        "coding": [ {
          "system": "http://terminology.hl7.org/CodeSystem/measure-population",
          "code": "initial-population",
          "display": "Initial Population"
        } ]
      },
      "count": 1
    }, {
      "code": {
        "coding": [ {
          "system": "http://terminology.hl7.org/CodeSystem/measure-population",
          "code": "numerator",
          "display": "Numerator"
        } ]
      },
      "count": 0
    }, {
      "code": {
        "coding": [ {
          "system": "http://terminology.hl7.org/CodeSystem/measure-population",
          "code": "denominator",
          "display": "Denominator"
        } ]
      },
      "count": 1
    }, {
      "code": {
        "coding": [ {
          "system": "http://terminology.hl7.org/CodeSystem/measure-population",
          "code": "denominator-exclusion",
          "display": "Denominator Exclusion"
        } ]
      },
      "count": 0
    } ],
    "measureScore": {
      "value": 0.0
    }
  } ],
  "evaluatedResource": [ {
    "reference": "#389f3ea6-51da-4b03-bfa9-2c8df338dfda"
  }, {
    "reference": "#e40c352e-d1c0-4fc8-b376-69845d086040"
  }, {
    "reference": "#4a7e090b-b74a-47b8-8fb0-cdeaaabfaa39"
  }, {
    "extension": [ {
      "url": "http://hl7.org/fhir/us/davinci-deqm/StructureDefinition/extension-populationReference",
      "valueString": "initial-population"
    }, {
      "url": "http://hl7.org/fhir/us/davinci-deqm/StructureDefinition/extension-populationReference",
      "valueString": "denominator"
    } ],
    "reference": "Patient/denom-EXM74-strat2-case3"
  }, {
    "extension": [ {
      "url": "http://hl7.org/fhir/us/davinci-deqm/StructureDefinition/extension-populationReference",
      "valueString": "initial-population"
    }, {
      "url": "http://hl7.org/fhir/us/davinci-deqm/StructureDefinition/extension-populationReference",
      "valueString": "denominator"
    } ],
    "reference": "Encounter/denom-EXM74-strat2-case3-Encounter"
  }, {
    "extension": [ {
      "url": "http://hl7.org/fhir/us/davinci-deqm/StructureDefinition/extension-populationReference",
      "valueString": "initial-population"
    }, {
      "url": "http://hl7.org/fhir/us/davinci-deqm/StructureDefinition/extension-populationReference",
      "valueString": "denominator"
    } ],
    "reference": "Patient/denom-EXM74-strat2-case3"
  }, {
    "extension": [ {
      "url": "http://hl7.org/fhir/us/davinci-deqm/StructureDefinition/extension-populationReference",
      "valueString": "initial-population"
    }, {
      "url": "http://hl7.org/fhir/us/davinci-deqm/StructureDefinition/extension-populationReference",
      "valueString": "denominator"
    } ],
    "reference": "Encounter/denom-EXM74-strat2-case3-Encounter"
  } ]
}