{
  "resourceType": "MeasureReport",
  "contained": [ {
    "resourceType": "Observation",
    "id": "8841af57-4f44-4fa7-adda-194ae691a5ef",
    "extension": [ {
      "url": "http://hl7.org/fhir/StructureDefinition/cqf-measureInfo",
      "extension": [ {
        "url": "measure",
        "valueCanonical": "http://hl7.org/fhir/us/cqfmeasures/http://ecqi.healthit.gov/ecqms/Measure/PrimaryCariesPreventionasOfferedbyPCPsincludingDentistsFHIR"
      }, {
        "url": "populationId",
        "valueString": "sde-race"
      } ]
    } ],
    "status": "final",
    "code": {
      "text": "sde-race"
    },
    "valueCodeableConcept": {
      "coding": [ {
        "system": "urn:oid:2.16.840.1.113883.6.238",
        "code": "2106-3",
        "display": "White"
      } ]
    }
  }, {
    "resourceType": "Observation",
    "id": "12a95989-e6fc-4d46-9ae7-0c8b7f81b922",
    "extension": [ {
      "url": "http://hl7.org/fhir/StructureDefinition/cqf-measureInfo",
      "extension": [ {
        "url": "measure",
        "valueCanonical": "http://hl7.org/fhir/us/cqfmeasures/http://ecqi.healthit.gov/ecqms/Measure/PrimaryCariesPreventionasOfferedbyPCPsincludingDentistsFHIR"
      }, {
        "url": "populationId",
        "valueString": "sde-ethnicity"
      } ]
    } ],
    "status": "final",
    "code": {
      "text": "sde-ethnicity"
    },
    "valueCodeableConcept": {
      "coding": [ {
        "system": "urn:oid:2.16.840.1.113883.6.238",
        "code": "2186-5",
        "display": "Not Hispanic or Latino"
      } ]
    }
  }, {
    "resourceType": "Observation",
    "id": "59cf7f63-b384-4e4c-9537-6c70ba9b2039",
    "extension": [ {
      "url": "http://hl7.org/fhir/StructureDefinition/cqf-measureInfo",
      "extension": [ {
        "url": "measure",
        "valueCanonical": "http://hl7.org/fhir/us/cqfmeasures/http://ecqi.healthit.gov/ecqms/Measure/PrimaryCariesPreventionasOfferedbyPCPsincludingDentistsFHIR"
      }, {
        "url": "populationId",
        "valueString": "sde-sex"
      } ]
    } ],
    "status": "final",
    "code": {
      "text": "sde-sex"
    },
    "valueCodeableConcept": {
      "coding": [ {
        "code": "M"
      } ]
    }
  } ],
  "status": "complete",
  "type": "individual",
  "measure": "http://ecqi.healthit.gov/ecqms/Measure/PrimaryCariesPreventionasOfferedbyPCPsincludingDentistsFHIR",
  "subject": {
    "reference": "Patient/denom-EXM74-strat1-case1"
  },
  "period": {
    "start": "2019-01-01T00:00:00-06:00",
    "end": "2019-12-31T00:00:00-06:00"
  },
  "group": [ {
    "population": [ {
      "code": {
        "coding": [ {
          "system": "http://terminology.hl7.org/CodeSystem/measure-population",
          "code": "initial-population",
          "display": "Initial Population"
        } ]
      },
      "count": 1
    }, {
      "code": {
        "coding": [ {
          "system": "http://terminology.hl7.org/CodeSystem/measure-population",
          "code": "numerator",
          "display": "Numerator"
        } ]
      },
      "count": 0
    }, {
      "code": {
        "coding": [ {
          "system": "http://terminology.hl7.org/CodeSystem/measure-population",
          "code": "denominator",
          "display": "Denominator"
        } ]
      },
      "count": 1
    }, {
      "code": {
        "coding": [ {
          "system": "http://terminology.hl7.org/CodeSystem/measure-population",
          "code": "denominator-exclusion",
          "display": "Denominator Exclusion"
        } ]
      },
      "count": 0
    } ],
    "measureScore": {
      "value": 0.0
    }
  } ],
  "evaluatedResource": [ {
    "reference": "#8841af57-4f44-4fa7-adda-194ae691a5ef"
  }, {
    "reference": "#12a95989-e6fc-4d46-9ae7-0c8b7f81b922"
  }, {
    "reference": "#59cf7f63-b384-4e4c-9537-6c70ba9b2039"
  }, {
    "extension": [ {
      "url": "http://hl7.org/fhir/us/davinci-deqm/StructureDefinition/extension-populationReference",
      "valueString": "initial-population"
    }, {
      "url": "http://hl7.org/fhir/us/davinci-deqm/StructureDefinition/extension-populationReference",
      "valueString": "denominator"
    } ],
    "reference": "Encounter/denom-EXM74-strat1-case1-Encounter"
  }, {
    "extension": [ {
      "url": "http://hl7.org/fhir/us/davinci-deqm/StructureDefinition/extension-populationReference",
      "valueString": "initial-population"
    }, {
      "url": "http://hl7.org/fhir/us/davinci-deqm/StructureDefinition/extension-populationReference",
      "valueString": "denominator"
    } ],
    "reference": "Patient/denom-EXM74-strat1-case1"
  }, {
    "extension": [ {
      "url": "http://hl7.org/fhir/us/davinci-deqm/StructureDefinition/extension-populationReference",
      "valueString": "initial-population"
    }, {
      "url": "http://hl7.org/fhir/us/davinci-deqm/StructureDefinition/extension-populationReference",
      "valueString": "denominator"
    } ],
    "reference": "Encounter/denom-EXM74-strat1-case1-Encounter"
  }, {
    "extension": [ {
      "url": "http://hl7.org/fhir/us/davinci-deqm/StructureDefinition/extension-populationReference",
      "valueString": "initial-population"
    }, {
      "url": "http://hl7.org/fhir/us/davinci-deqm/StructureDefinition/extension-populationReference",
      "valueString": "denominator"
    } ],
    "reference": "Patient/denom-EXM74-strat1-case1"
  } ]
}