{
  "resourceType": "MeasureReport",
  "contained": [
    {
      "resourceType": "Observation",
      "id": "a08c6e6f-7515-462d-a206-3ed35944fddb",
      "extension": [
        {
          "url": "http://hl7.org/fhir/StructureDefinition/cqf-measureInfo",
          "extension": [
            {
              "url": "measure",
              "valueCanonical": "http://hl7.org/fhir/us/cqfmeasures/Measure/FHIR347"
            },
            {
              "url": "populationId",
              "valueString": "sde-race"
            }
          ]
        }
      ],
      "status": "final",
      "code": {
        "text": "sde-race"
      },
      "valueCodeableConcept": {
        "coding": [
          {
            "system": "urn:oid:2.16.840.1.113883.6.238",
            "code": "2106-3",
            "display": "White"
          }
        ]
      }
    },
    {
      "resourceType": "Observation",
      "id": "263010d6-5a84-4b93-b644-51ab2df5a6d6",
      "extension": [
        {
          "url": "http://hl7.org/fhir/StructureDefinition/cqf-measureInfo",
          "extension": [
            {
              "url": "measure",
              "valueCanonical": "http://hl7.org/fhir/us/cqfmeasures/Measure/FHIR347"
            },
            {
              "url": "populationId",
              "valueString": "sde-ethnicity"
            }
          ]
        }
      ],
      "status": "final",
      "code": {
        "text": "sde-ethnicity"
      },
      "valueCodeableConcept": {
        "coding": [
          {
            "system": "urn:oid:2.16.840.1.113883.6.238",
            "code": "2186-5",
            "display": "Not Hispanic or Latino"
          }
        ]
      }
    },
    {
      "resourceType": "Observation",
      "id": "216d99e4-c890-4a56-8cdd-6c6a597ffdcd",
      "extension": [
        {
          "url": "http://hl7.org/fhir/StructureDefinition/cqf-measureInfo",
          "extension": [
            {
              "url": "measure",
              "valueCanonical": "http://hl7.org/fhir/us/cqfmeasures/Measure/FHIR347"
            },
            {
              "url": "populationId",
              "valueString": "sde-sex"
            }
          ]
        }
      ],
      "status": "final",
      "code": {
        "text": "sde-sex"
      },
      "valueCodeableConcept": {
        "coding": [
          {
            "code": "M"
          }
        ]
      }
    }
  ],
  "status": "complete",
  "type": "individual",
  "measure": "Measure/FHIR347",
  "subject": {
    "reference": "Patient/denomexcpt1-EXM347"
  },
  "period": {
    "start": "2019-01-01T00:00:00-07:00",
    "end": "2019-12-31T00:00:00-07:00"
  },
  "group": [
    {
      "population": [
        {
          "code": {
            "coding": [
              {
                "system": "http://terminology.hl7.org/CodeSystem/measure-population",
                "code": "initial-population",
                "display": "Initial Population"
              }
            ]
          },
          "count": 1
        },
        {
          "code": {
            "coding": [
              {
                "system": "http://terminology.hl7.org/CodeSystem/measure-population",
                "code": "numerator",
                "display": "Numerator"
              }
            ]
          },
          "count": 0
        },
        {
          "code": {
            "coding": [
              {
                "system": "http://terminology.hl7.org/CodeSystem/measure-population",
                "code": "denominator",
                "display": "Denominator"
              }
            ]
          },
          "count": 1
        },
        {
          "code": {
            "coding": [
              {
                "system": "http://terminology.hl7.org/CodeSystem/measure-population",
                "code": "denominator-exclusion",
                "display": "Denominator Exclusion"
              }
            ]
          },
          "count": 0
        },
        {
          "code": {
            "coding": [
              {
                "system": "http://terminology.hl7.org/CodeSystem/measure-population",
                "code": "denominator-exception",
                "display": "Denominator Exception"
              }
            ]
          },
          "count": 0
        }
      ],
      "measureScore": {
        "value": 0.0
      }
    },
    {
      "population": [
        {
          "code": {
            "coding": [
              {
                "system": "http://terminology.hl7.org/CodeSystem/measure-population",
                "code": "initial-population",
                "display": "Initial Population"
              }
            ]
          },
          "count": 1
        },
        {
          "code": {
            "coding": [
              {
                "system": "http://terminology.hl7.org/CodeSystem/measure-population",
                "code": "numerator",
                "display": "Numerator"
              }
            ]
          },
          "count": 0
        },
        {
          "code": {
            "coding": [
              {
                "system": "http://terminology.hl7.org/CodeSystem/measure-population",
                "code": "denominator",
                "display": "Denominator"
              }
            ]
          },
          "count": 0
        },
        {
          "code": {
            "coding": [
              {
                "system": "http://terminology.hl7.org/CodeSystem/measure-population",
                "code": "denominator-exclusion",
                "display": "Denominator Exclusion"
              }
            ]
          },
          "count": 0
        },
        {
          "code": {
            "coding": [
              {
                "system": "http://terminology.hl7.org/CodeSystem/measure-population",
                "code": "denominator-exception",
                "display": "Denominator Exception"
              }
            ]
          },
          "count": 0
        }
      ]
    },
    {
      "population": [
        {
          "code": {
            "coding": [
              {
                "system": "http://terminology.hl7.org/CodeSystem/measure-population",
                "code": "initial-population",
                "display": "Initial Population"
              }
            ]
          },
          "count": 1
        },
        {
          "code": {
            "coding": [
              {
                "system": "http://terminology.hl7.org/CodeSystem/measure-population",
                "code": "numerator",
                "display": "Numerator"
              }
            ]
          },
          "count": 0
        },
        {
          "code": {
            "coding": [
              {
                "system": "http://terminology.hl7.org/CodeSystem/measure-population",
                "code": "denominator",
                "display": "Denominator"
              }
            ]
          },
          "count": 0
        },
        {
          "code": {
            "coding": [
              {
                "system": "http://terminology.hl7.org/CodeSystem/measure-population",
                "code": "denominator-exclusion",
                "display": "Denominator Exclusion"
              }
            ]
          },
          "count": 0
        },
        {
          "code": {
            "coding": [
              {
                "system": "http://terminology.hl7.org/CodeSystem/measure-population",
                "code": "denominator-exception",
                "display": "Denominator Exception"
              }
            ]
          },
          "count": 0
        }
      ]
    }
  ],
  "evaluatedResource": [
    {
      "reference": "#a08c6e6f-7515-462d-a206-3ed35944fddb"
    },
    {
      "reference": "#263010d6-5a84-4b93-b644-51ab2df5a6d6"
    },
    {
      "reference": "#216d99e4-c890-4a56-8cdd-6c6a597ffdcd"
    },
    {
      "reference": "#Condition/denomexcpt1-EXM347-Condition"
    },
    {
      "reference": "#Encounter/denomexcpt1-EXM347-Encounter"
    },
    {
      "reference": "#Patient/denomexcpt1-EXM347"
    },
    {
      "reference": "#Condition/denomexcpt1-EXM347-Condition2"
    }
  ]
}