{
  "resourceType": "MeasureReport",
  "contained": [
    {
      "resourceType": "Observation",
      "id": "6400dfeb-72d4-40b2-8f4d-5850f8d0ca5b",
      "extension": [
        {
          "url": "http://hl7.org/fhir/StructureDefinition/cqf-measureInfo",
          "extension": [
            {
              "url": "measure",
              "valueCanonical": "http://hl7.org/fhir/us/cqfmeasures/Measure/FHIR347"
            },
            {
              "url": "populationId",
              "valueString": "sde-race"
            }
          ]
        }
      ],
      "status": "final",
      "code": {
        "text": "sde-race"
      },
      "valueCodeableConcept": {
        "coding": [
          {
            "system": "urn:oid:2.16.840.1.113883.6.238",
            "code": "2106-3",
            "display": "White"
          }
        ]
      }
    },
    {
      "resourceType": "Observation",
      "id": "43255d3c-ddaa-4b81-9561-394da3cf4c1e",
      "extension": [
        {
          "url": "http://hl7.org/fhir/StructureDefinition/cqf-measureInfo",
          "extension": [
            {
              "url": "measure",
              "valueCanonical": "http://hl7.org/fhir/us/cqfmeasures/Measure/FHIR347"
            },
            {
              "url": "populationId",
              "valueString": "sde-ethnicity"
            }
          ]
        }
      ],
      "status": "final",
      "code": {
        "text": "sde-ethnicity"
      },
      "valueCodeableConcept": {
        "coding": [
          {
            "system": "urn:oid:2.16.840.1.113883.6.238",
            "code": "2186-5",
            "display": "Not Hispanic or Latino"
          }
        ]
      }
    },
    {
      "resourceType": "Observation",
      "id": "5857066b-b931-4f46-913f-9799f5c963e4",
      "extension": [
        {
          "url": "http://hl7.org/fhir/StructureDefinition/cqf-measureInfo",
          "extension": [
            {
              "url": "measure",
              "valueCanonical": "http://hl7.org/fhir/us/cqfmeasures/Measure/FHIR347"
            },
            {
              "url": "populationId",
              "valueString": "sde-sex"
            }
          ]
        }
      ],
      "status": "final",
      "code": {
        "text": "sde-sex"
      },
      "valueCodeableConcept": {
        "coding": [
          {
            "code": "M"
          }
        ]
      }
    }
  ],
  "status": "complete",
  "type": "individual",
  "measure": "Measure/FHIR347",
  "subject": {
    "reference": "Patient/denom3-EXM347"
  },
  "period": {
    "start": "2019-01-01T00:00:00-07:00",
    "end": "2019-12-31T00:00:00-07:00"
  },
  "group": [
    {
      "population": [
        {
          "code": {
            "coding": [
              {
                "system": "http://terminology.hl7.org/CodeSystem/measure-population",
                "code": "initial-population",
                "display": "Initial Population"
              }
            ]
          },
          "count": 1
        },
        {
          "code": {
            "coding": [
              {
                "system": "http://terminology.hl7.org/CodeSystem/measure-population",
                "code": "numerator",
                "display": "Numerator"
              }
            ]
          },
          "count": 0
        },
        {
          "code": {
            "coding": [
              {
                "system": "http://terminology.hl7.org/CodeSystem/measure-population",
                "code": "denominator",
                "display": "Denominator"
              }
            ]
          },
          "count": 0
        },
        {
          "code": {
            "coding": [
              {
                "system": "http://terminology.hl7.org/CodeSystem/measure-population",
                "code": "denominator-exclusion",
                "display": "Denominator Exclusion"
              }
            ]
          },
          "count": 0
        },
        {
          "code": {
            "coding": [
              {
                "system": "http://terminology.hl7.org/CodeSystem/measure-population",
                "code": "denominator-exception",
                "display": "Denominator Exception"
              }
            ]
          },
          "count": 0
        }
      ]
    },
    {
      "population": [
        {
          "code": {
            "coding": [
              {
                "system": "http://terminology.hl7.org/CodeSystem/measure-population",
                "code": "initial-population",
                "display": "Initial Population"
              }
            ]
          },
          "count": 1
        },
        {
          "code": {
            "coding": [
              {
                "system": "http://terminology.hl7.org/CodeSystem/measure-population",
                "code": "numerator",
                "display": "Numerator"
              }
            ]
          },
          "count": 0
        },
        {
          "code": {
            "coding": [
              {
                "system": "http://terminology.hl7.org/CodeSystem/measure-population",
                "code": "denominator",
                "display": "Denominator"
              }
            ]
          },
          "count": 0
        },
        {
          "code": {
            "coding": [
              {
                "system": "http://terminology.hl7.org/CodeSystem/measure-population",
                "code": "denominator-exclusion",
                "display": "Denominator Exclusion"
              }
            ]
          },
          "count": 0
        },
        {
          "code": {
            "coding": [
              {
                "system": "http://terminology.hl7.org/CodeSystem/measure-population",
                "code": "denominator-exception",
                "display": "Denominator Exception"
              }
            ]
          },
          "count": 0
        }
      ]
    },
    {
      "population": [
        {
          "code": {
            "coding": [
              {
                "system": "http://terminology.hl7.org/CodeSystem/measure-population",
                "code": "initial-population",
                "display": "Initial Population"
              }
            ]
          },
          "count": 1
        },
        {
          "code": {
            "coding": [
              {
                "system": "http://terminology.hl7.org/CodeSystem/measure-population",
                "code": "numerator",
                "display": "Numerator"
              }
            ]
          },
          "count": 0
        },
        {
          "code": {
            "coding": [
              {
                "system": "http://terminology.hl7.org/CodeSystem/measure-population",
                "code": "denominator",
                "display": "Denominator"
              }
            ]
          },
          "count": 1
        },
        {
          "code": {
            "coding": [
              {
                "system": "http://terminology.hl7.org/CodeSystem/measure-population",
                "code": "denominator-exclusion",
                "display": "Denominator Exclusion"
              }
            ]
          },
          "count": 0
        },
        {
          "code": {
            "coding": [
              {
                "system": "http://terminology.hl7.org/CodeSystem/measure-population",
                "code": "denominator-exception",
                "display": "Denominator Exception"
              }
            ]
          },
          "count": 0
        }
      ],
      "measureScore": {
        "value": 0.0
      }
    }
  ],
  "evaluatedResource": [
    {
      "reference": "#6400dfeb-72d4-40b2-8f4d-5850f8d0ca5b"
    },
    {
      "reference": "#43255d3c-ddaa-4b81-9561-394da3cf4c1e"
    },
    {
      "reference": "#5857066b-b931-4f46-913f-9799f5c963e4"
    },
    {
      "reference": "#Observation/denom3-EXM347-Observation"
    },
    {
      "reference": "#Condition/denom3-EXM347-Condition"
    },
    {
      "reference": "#Encounter/denom3-EXM347-Encounter"
    },
    {
      "reference": "#Patient/denom3-EXM347"
    }
  ]
}