{
  "resourceType": "MeasureReport",
  "contained": [
    {
      "resourceType": "Observation",
      "id": "4f8eaa04-e7bd-4608-a555-d13e6a8c94bb",
      "extension": [
        {
          "url": "http://hl7.org/fhir/StructureDefinition/cqf-measureInfo",
          "extension": [
            {
              "url": "measure",
              "valueCanonical": "http://hl7.org/fhir/us/cqfmeasures/Measure/FHIR347"
            },
            {
              "url": "populationId",
              "valueString": "sde-race"
            }
          ]
        }
      ],
      "status": "final",
      "code": {
        "text": "sde-race"
      },
      "valueCodeableConcept": {
        "coding": [
          {
            "system": "urn:oid:2.16.840.1.113883.6.238",
            "code": "2106-3",
            "display": "White"
          }
        ]
      }
    },
    {
      "resourceType": "Observation",
      "id": "af67752f-1aa9-42d4-9b43-eb098ae55064",
      "extension": [
        {
          "url": "http://hl7.org/fhir/StructureDefinition/cqf-measureInfo",
          "extension": [
            {
              "url": "measure",
              "valueCanonical": "http://hl7.org/fhir/us/cqfmeasures/Measure/FHIR347"
            },
            {
              "url": "populationId",
              "valueString": "sde-ethnicity"
            }
          ]
        }
      ],
      "status": "final",
      "code": {
        "text": "sde-ethnicity"
      },
      "valueCodeableConcept": {
        "coding": [
          {
            "system": "urn:oid:2.16.840.1.113883.6.238",
            "code": "2186-5",
            "display": "Not Hispanic or Latino"
          }
        ]
      }
    },
    {
      "resourceType": "Observation",
      "id": "0f292ec9-c260-4e5a-831e-97d3415eb828",
      "extension": [
        {
          "url": "http://hl7.org/fhir/StructureDefinition/cqf-measureInfo",
          "extension": [
            {
              "url": "measure",
              "valueCanonical": "http://hl7.org/fhir/us/cqfmeasures/Measure/FHIR347"
            },
            {
              "url": "populationId",
              "valueString": "sde-sex"
            }
          ]
        }
      ],
      "status": "final",
      "code": {
        "text": "sde-sex"
      },
      "valueCodeableConcept": {
        "coding": [
          {
            "code": "M"
          }
        ]
      }
    }
  ],
  "status": "complete",
  "type": "individual",
  "measure": "Measure/FHIR347",
  "subject": {
    "reference": "Patient/denomexcpt3-EXM347"
  },
  "period": {
    "start": "2019-01-01T00:00:00-07:00",
    "end": "2019-12-31T00:00:00-07:00"
  },
  "group": [
    {
      "population": [
        {
          "code": {
            "coding": [
              {
                "system": "http://terminology.hl7.org/CodeSystem/measure-population",
                "code": "initial-population",
                "display": "Initial Population"
              }
            ]
          },
          "count": 1
        },
        {
          "code": {
            "coding": [
              {
                "system": "http://terminology.hl7.org/CodeSystem/measure-population",
                "code": "numerator",
                "display": "Numerator"
              }
            ]
          },
          "count": 0
        },
        {
          "code": {
            "coding": [
              {
                "system": "http://terminology.hl7.org/CodeSystem/measure-population",
                "code": "denominator",
                "display": "Denominator"
              }
            ]
          },
          "count": 0
        },
        {
          "code": {
            "coding": [
              {
                "system": "http://terminology.hl7.org/CodeSystem/measure-population",
                "code": "denominator-exclusion",
                "display": "Denominator Exclusion"
              }
            ]
          },
          "count": 0
        },
        {
          "code": {
            "coding": [
              {
                "system": "http://terminology.hl7.org/CodeSystem/measure-population",
                "code": "denominator-exception",
                "display": "Denominator Exception"
              }
            ]
          },
          "count": 0
        }
      ]
    },
    {
      "population": [
        {
          "code": {
            "coding": [
              {
                "system": "http://terminology.hl7.org/CodeSystem/measure-population",
                "code": "initial-population",
                "display": "Initial Population"
              }
            ]
          },
          "count": 1
        },
        {
          "code": {
            "coding": [
              {
                "system": "http://terminology.hl7.org/CodeSystem/measure-population",
                "code": "numerator",
                "display": "Numerator"
              }
            ]
          },
          "count": 0
        },
        {
          "code": {
            "coding": [
              {
                "system": "http://terminology.hl7.org/CodeSystem/measure-population",
                "code": "denominator",
                "display": "Denominator"
              }
            ]
          },
          "count": 0
        },
        {
          "code": {
            "coding": [
              {
                "system": "http://terminology.hl7.org/CodeSystem/measure-population",
                "code": "denominator-exclusion",
                "display": "Denominator Exclusion"
              }
            ]
          },
          "count": 0
        },
        {
          "code": {
            "coding": [
              {
                "system": "http://terminology.hl7.org/CodeSystem/measure-population",
                "code": "denominator-exception",
                "display": "Denominator Exception"
              }
            ]
          },
          "count": 0
        }
      ]
    },
    {
      "population": [
        {
          "code": {
            "coding": [
              {
                "system": "http://terminology.hl7.org/CodeSystem/measure-population",
                "code": "initial-population",
                "display": "Initial Population"
              }
            ]
          },
          "count": 1
        },
        {
          "code": {
            "coding": [
              {
                "system": "http://terminology.hl7.org/CodeSystem/measure-population",
                "code": "numerator",
                "display": "Numerator"
              }
            ]
          },
          "count": 0
        },
        {
          "code": {
            "coding": [
              {
                "system": "http://terminology.hl7.org/CodeSystem/measure-population",
                "code": "denominator",
                "display": "Denominator"
              }
            ]
          },
          "count": 0
        },
        {
          "code": {
            "coding": [
              {
                "system": "http://terminology.hl7.org/CodeSystem/measure-population",
                "code": "denominator-exclusion",
                "display": "Denominator Exclusion"
              }
            ]
          },
          "count": 0
        },
        {
          "code": {
            "coding": [
              {
                "system": "http://terminology.hl7.org/CodeSystem/measure-population",
                "code": "denominator-exception",
                "display": "Denominator Exception"
              }
            ]
          },
          "count": 1
        }
      ]
    }
  ],
  "evaluatedResource": [
    {
      "reference": "#4f8eaa04-e7bd-4608-a555-d13e6a8c94bb"
    },
    {
      "reference": "#af67752f-1aa9-42d4-9b43-eb098ae55064"
    },
    {
      "reference": "#0f292ec9-c260-4e5a-831e-97d3415eb828"
    },
    {
      "reference": "#Patient/denomexcpt3-EXM347"
    },
    {
      "reference": "#Condition/denomexcpt3-EXM347-Condition2"
    },
    {
      "reference": "#Observation/denomexcpt3-EXM347-Observation"
    },
    {
      "reference": "#Condition/denomexcpt3-EXM347-Condition"
    },
    {
      "reference": "#Encounter/denomexcpt3-EXM347-Encounter"
    }
  ]
}