{
  "resourceType": "MeasureReport",
  "contained": [
    {
      "resourceType": "Observation",
      "id": "b33459f3-bfaf-4cb1-b101-f9a2cabf029a",
      "extension": [
        {
          "url": "http://hl7.org/fhir/StructureDefinition/cqf-measureInfo",
          "extension": [
            {
              "url": "measure",
              "valueCanonical": "http://hl7.org/fhir/us/cqfmeasures/Measure/FHIR347"
            },
            {
              "url": "populationId",
              "valueString": "sde-race"
            }
          ]
        }
      ],
      "status": "final",
      "code": {
        "text": "sde-race"
      },
      "valueCodeableConcept": {
        "coding": [
          {
            "system": "urn:oid:2.16.840.1.113883.6.238",
            "code": "2106-3",
            "display": "White"
          }
        ]
      }
    },
    {
      "resourceType": "Observation",
      "id": "e247eed8-20ef-4872-be1c-cfee900c63db",
      "extension": [
        {
          "url": "http://hl7.org/fhir/StructureDefinition/cqf-measureInfo",
          "extension": [
            {
              "url": "measure",
              "valueCanonical": "http://hl7.org/fhir/us/cqfmeasures/Measure/FHIR347"
            },
            {
              "url": "populationId",
              "valueString": "sde-ethnicity"
            }
          ]
        }
      ],
      "status": "final",
      "code": {
        "text": "sde-ethnicity"
      },
      "valueCodeableConcept": {
        "coding": [
          {
            "system": "urn:oid:2.16.840.1.113883.6.238",
            "code": "2186-5",
            "display": "Not Hispanic or Latino"
          }
        ]
      }
    },
    {
      "resourceType": "Observation",
      "id": "1006a0fc-40f4-43cd-b526-11667f8ca28d",
      "extension": [
        {
          "url": "http://hl7.org/fhir/StructureDefinition/cqf-measureInfo",
          "extension": [
            {
              "url": "measure",
              "valueCanonical": "http://hl7.org/fhir/us/cqfmeasures/Measure/FHIR347"
            },
            {
              "url": "populationId",
              "valueString": "sde-sex"
            }
          ]
        }
      ],
      "status": "final",
      "code": {
        "text": "sde-sex"
      },
      "valueCodeableConcept": {
        "coding": [
          {
            "code": "M"
          }
        ]
      }
    }
  ],
  "status": "complete",
  "type": "individual",
  "measure": "Measure/FHIR347",
  "subject": {
    "reference": "Patient/denomexcl1-EXM347"
  },
  "period": {
    "start": "2019-01-01T00:00:00-07:00",
    "end": "2019-12-31T00:00:00-07:00"
  },
  "group": [
    {
      "population": [
        {
          "code": {
            "coding": [
              {
                "system": "http://terminology.hl7.org/CodeSystem/measure-population",
                "code": "initial-population",
                "display": "Initial Population"
              }
            ]
          },
          "count": 1
        },
        {
          "code": {
            "coding": [
              {
                "system": "http://terminology.hl7.org/CodeSystem/measure-population",
                "code": "numerator",
                "display": "Numerator"
              }
            ]
          },
          "count": 0
        },
        {
          "code": {
            "coding": [
              {
                "system": "http://terminology.hl7.org/CodeSystem/measure-population",
                "code": "denominator",
                "display": "Denominator"
              }
            ]
          },
          "count": 1
        },
        {
          "code": {
            "coding": [
              {
                "system": "http://terminology.hl7.org/CodeSystem/measure-population",
                "code": "denominator-exclusion",
                "display": "Denominator Exclusion"
              }
            ]
          },
          "count": 0
        },
        {
          "code": {
            "coding": [
              {
                "system": "http://terminology.hl7.org/CodeSystem/measure-population",
                "code": "denominator-exception",
                "display": "Denominator Exception"
              }
            ]
          },
          "count": 0
        }
      ],
      "measureScore": {
        "value": 0.0
      }
    },
    {
      "population": [
        {
          "code": {
            "coding": [
              {
                "system": "http://terminology.hl7.org/CodeSystem/measure-population",
                "code": "initial-population",
                "display": "Initial Population"
              }
            ]
          },
          "count": 1
        },
        {
          "code": {
            "coding": [
              {
                "system": "http://terminology.hl7.org/CodeSystem/measure-population",
                "code": "numerator",
                "display": "Numerator"
              }
            ]
          },
          "count": 0
        },
        {
          "code": {
            "coding": [
              {
                "system": "http://terminology.hl7.org/CodeSystem/measure-population",
                "code": "denominator",
                "display": "Denominator"
              }
            ]
          },
          "count": 0
        },
        {
          "code": {
            "coding": [
              {
                "system": "http://terminology.hl7.org/CodeSystem/measure-population",
                "code": "denominator-exclusion",
                "display": "Denominator Exclusion"
              }
            ]
          },
          "count": 0
        },
        {
          "code": {
            "coding": [
              {
                "system": "http://terminology.hl7.org/CodeSystem/measure-population",
                "code": "denominator-exception",
                "display": "Denominator Exception"
              }
            ]
          },
          "count": 0
        }
      ]
    },
    {
      "population": [
        {
          "code": {
            "coding": [
              {
                "system": "http://terminology.hl7.org/CodeSystem/measure-population",
                "code": "initial-population",
                "display": "Initial Population"
              }
            ]
          },
          "count": 1
        },
        {
          "code": {
            "coding": [
              {
                "system": "http://terminology.hl7.org/CodeSystem/measure-population",
                "code": "numerator",
                "display": "Numerator"
              }
            ]
          },
          "count": 0
        },
        {
          "code": {
            "coding": [
              {
                "system": "http://terminology.hl7.org/CodeSystem/measure-population",
                "code": "denominator",
                "display": "Denominator"
              }
            ]
          },
          "count": 0
        },
        {
          "code": {
            "coding": [
              {
                "system": "http://terminology.hl7.org/CodeSystem/measure-population",
                "code": "denominator-exclusion",
                "display": "Denominator Exclusion"
              }
            ]
          },
          "count": 0
        },
        {
          "code": {
            "coding": [
              {
                "system": "http://terminology.hl7.org/CodeSystem/measure-population",
                "code": "denominator-exception",
                "display": "Denominator Exception"
              }
            ]
          },
          "count": 0
        }
      ]
    }
  ],
  "evaluatedResource": [
    {
      "reference": "#b33459f3-bfaf-4cb1-b101-f9a2cabf029a"
    },
    {
      "reference": "#e247eed8-20ef-4872-be1c-cfee900c63db"
    },
    {
      "reference": "#1006a0fc-40f4-43cd-b526-11667f8ca28d"
    },
    {
      "reference": "#Condition/denomexcl1-EXM347-Condition"
    },
    {
      "reference": "#Patient/denomexcl1-EXM347"
    },
    {
      "reference": "#Condition/denomexcl1-EXM347-Condition2"
    },
    {
      "reference": "#Encounter/denomexcl1-EXM347-Encounter"
    }
  ]
}