{
  "resourceType": "Bundle",
  "id": "tests-denomexcl-EXM153-bundle",
  "type": "transaction",
  "entry": [ {
    "resource": {
      "resourceType": "Encounter",
      "id": "denomexcl-EXM153-Encounter",
      "meta": {
        "profile": [ "http://hl7.org/fhir/us/core/StructureDefinition/us-core-encounter" ]
      },
      "status": "finished",
      "class": {
        "system": "http://terminology.hl7.org/CodeSystem/v3-ActCode",
        "code": "IMP",
        "display": "inpatient encounter"
      },
      "type": [ {
        "coding": [ {
          "system": "http://www.ama-assn.org/go/cpt",
          "code": "99385",
          "display": "Initial comprehensive preventive medicine evaluation and management of an individual including an age and gender appropriate history, examination, counseling/anticipatory guidance/risk factor reduction interventions, and the ordering of laboratory/diagnostic procedures, new patient; 18-39 years"
        } ]
      } ],
      "subject": {
        "reference": "Patient/denomexcl-EXM153"
      },
      "period": {
        "start": "2019-08-21T08:00:00-07:00",
        "end": "2019-08-21T08:15:00-07:00"
      }
    },
    "request": {
      "method": "PUT",
      "url": "Encounter/denomexcl-EXM153-Encounter"
    }
  }, {
    "resource": {
      "resourceType": "Patient",
      "id": "denomexcl-EXM153",
      "meta": {
        "profile": [ "http://hl7.org/fhir/us/core/StructureDefinition/us-core-patient" ]
      },
      "extension": [ {
        "url": "http://hl7.org/fhir/us/core/StructureDefinition/us-core-race",
        "extension": [ {
          "url": "ombCategory",
          "valueCoding": {
            "system": "urn:oid:2.16.840.1.113883.6.238",
            "code": "2106-3",
            "display": "White"
          }
        } ]
      }, {
        "url": "http://hl7.org/fhir/us/core/StructureDefinition/us-core-ethnicity",
        "extension": [ {
          "url": "ombCategory",
          "valueCoding": {
            "system": "urn:oid:2.16.840.1.113883.6.238",
            "code": "2186-5",
            "display": "Not Hispanic or Latino"
          }
        } ]
      } ],
      "identifier": [ {
        "use": "usual",
        "type": {
          "coding": [ {
            "system": "http://terminology.hl7.org/CodeSystem/v2-0203",
            "code": "MR",
            "display": "Medical Record Number"
          } ]
        },
        "system": "http://hospital.smarthealthit.org",
        "value": "9999999911"
      } ],
      "name": [ {
        "family": "Jones",
        "given": [ "Louise" ]
      } ],
      "gender": "female",
      "birthDate": "2002-01-21"
    },
    "request": {
      "method": "PUT",
      "url": "Patient/denomexcl-EXM153"
    }
  }, {
    "resource": {
      "resourceType": "MeasureReport",
      "id": "measurereport-denomexcl-EXM153",
      "contained": [ {
        "resourceType": "Observation",
        "id": "18b6c962-8e11-4f75-a597-a5e33e7919a2",
        "extension": [ {
          "url": "http://hl7.org/fhir/StructureDefinition/cqf-measureInfo",
          "extension": [ {
            "url": "measure",
            "valueCanonical": "http://hl7.org/fhir/us/cqfmeasures/Measure/measure-EXM153-9.2.000"
          }, {
            "url": "populationId",
            "valueString": "sde-race"
          } ]
        } ],
        "status": "final",
        "code": {
          "text": "sde-race"
        },
        "valueCodeableConcept": {
          "coding": [ {
            "system": "urn:oid:2.16.840.1.113883.6.238",
            "code": "2106-3",
            "display": "White"
          } ]
        }
      }, {
        "resourceType": "Observation",
        "id": "2a7554a2-73e4-49b4-8980-aa0edbbf7e98",
        "extension": [ {
          "url": "http://hl7.org/fhir/StructureDefinition/cqf-measureInfo",
          "extension": [ {
            "url": "measure",
            "valueCanonical": "http://hl7.org/fhir/us/cqfmeasures/Measure/measure-EXM153-9.2.000"
          }, {
            "url": "populationId",
            "valueString": "sde-ethnicity"
          } ]
        } ],
        "status": "final",
        "code": {
          "text": "sde-ethnicity"
        },
        "valueCodeableConcept": {
          "coding": [ {
            "system": "urn:oid:2.16.840.1.113883.6.238",
            "code": "2186-5",
            "display": "Not Hispanic or Latino"
          } ]
        }
      }, {
        "resourceType": "Observation",
        "id": "562d4ab8-90e9-4e0e-97f7-3fc5ee171c60",
        "extension": [ {
          "url": "http://hl7.org/fhir/StructureDefinition/cqf-measureInfo",
          "extension": [ {
            "url": "measure",
            "valueCanonical": "http://hl7.org/fhir/us/cqfmeasures/Measure/measure-EXM153-9.2.000"
          }, {
            "url": "populationId",
            "valueString": "sde-sex"
          } ]
        } ],
        "status": "final",
        "code": {
          "text": "sde-sex"
        },
        "valueCodeableConcept": {
          "coding": [ {
            "code": "F"
          } ]
        }
      } ],
      "status": "complete",
      "type": "individual",
      "measure": "Measure/measure-EXM153-9.2.000",
      "subject": {
        "reference": "Patient/denomexcl-EXM153"
      },
      "period": {
        "start": "2019-01-01T00:00:00+00:00",
        "end": "2019-12-31T00:00:00+00:00"
      },
      "group": [ {
        "id": "group-1",
        "population": [ {
          "code": {
            "coding": [ {
              "system": "http://terminology.hl7.org/CodeSystem/measure-population",
              "code": "initial-population",
              "display": "Initial Population"
            } ]
          },
          "count": 1
        }, {
          "code": {
            "coding": [ {
              "system": "http://terminology.hl7.org/CodeSystem/measure-population",
              "code": "numerator",
              "display": "Numerator"
            } ]
          },
          "count": 0
        }, {
          "code": {
            "coding": [ {
              "system": "http://terminology.hl7.org/CodeSystem/measure-population",
              "code": "denominator",
              "display": "Denominator"
            } ]
          },
          "count": 0
        }, {
          "code": {
            "coding": [ {
              "system": "http://terminology.hl7.org/CodeSystem/measure-population",
              "code": "denominator-exclusion",
              "display": "Denominator Exclusion"
            } ]
          },
          "count": 1
        } ]
      } ],
      "evaluatedResource": [ {
        "reference": "#18b6c962-8e11-4f75-a597-a5e33e7919a2"
      }, {
        "reference": "#2a7554a2-73e4-49b4-8980-aa0edbbf7e98"
      }, {
        "reference": "#562d4ab8-90e9-4e0e-97f7-3fc5ee171c60"
      }, {
        "reference": "#Encounter/denomexcl-EXM153-Encounter"
      }, {
        "reference": "#Patient/denomexcl-EXM153"
      }, {
        "reference": "#ServiceRequest/denomexcl-EXM153-ServiceRequest-Pregnancy"
      }, {
        "reference": "#ServiceRequest/denomexcl-EXM153-ServiceRequest-XRay"
      } ]
    },
    "request": {
      "method": "PUT",
      "url": "MeasureReport/measurereport-denomexcl-EXM153"
    }
  }, {
    "resource": {
      "resourceType": "ServiceRequest",
      "id": "denomexcl-EXM153-ServiceRequest-XRay",
      "status": "active",
      "intent": "order",
      "code": {
        "coding": [ {
          "system": "http://loinc.org",
          "code": "24532-4",
          "display": "US Abdomen RUQ"
        } ]
      },
      "subject": {
        "reference": "Patient/denomexcl-EXM153"
      },
      "encounter": {
        "reference": "Encounter/denomexcl-EXM153-Encounter"
      },
      "authoredOn": "2019-08-24T00:00:00-06:00"
    },
    "request": {
      "method": "PUT",
      "url": "ServiceRequest/denomexcl-EXM153-ServiceRequest-XRay"
    }
  }, {
    "resource": {
      "resourceType": "ServiceRequest",
      "id": "denomexcl-EXM153-ServiceRequest-Pregnancy",
      "status": "active",
      "intent": "order",
      "code": {
        "coding": [ {
          "system": "http://loinc.org",
          "code": "19080-1",
          "display": "Choriogonadotropin [Units/volume] in Serum or Plasma"
        } ]
      },
      "subject": {
        "reference": "Patient/denomexcl-EXM153"
      },
      "encounter": {
        "reference": "Encounter/denomexcl-EXM153-Encounter"
      },
      "authoredOn": "2019-08-21T00:00:00-06:00"
    },
    "request": {
      "method": "PUT",
      "url": "ServiceRequest/denomexcl-EXM153-ServiceRequest-Pregnancy"
    }
  } ]
}