{
  "resourceType": "Bundle",
  "id": "tests-denom-EXM153-bundle",
  "type": "transaction",
  "entry": [ {
    "resource": {
      "resourceType": "Encounter",
      "id": "denom-EXM153-Encounter",
      "meta": {
        "profile": [ "http://hl7.org/fhir/us/core/StructureDefinition/us-core-encounter" ]
      },
      "status": "finished",
      "class": {
        "system": "http://terminology.hl7.org/CodeSystem/v3-ActCode",
        "code": "IMP",
        "display": "inpatient encounter"
      },
      "type": [ {
        "coding": [ {
          "system": "http://www.ama-assn.org/go/cpt",
          "code": "99385",
          "display": "Initial comprehensive preventive medicine evaluation and management of an individual including an age and gender appropriate history, examination, counseling/anticipatory guidance/risk factor reduction interventions, and the ordering of laboratory/diagnostic procedures, new patient; 18-39 years"
        } ]
      } ],
      "subject": {
        "reference": "Patient/denom-EXM153"
      },
      "period": {
        "start": "2019-08-21T08:00:00-07:00",
        "end": "2019-08-21T08:15:00-07:00"
      }
    },
    "request": {
      "method": "PUT",
      "url": "Encounter/denom-EXM153-Encounter"
    }
  }, {
    "resource": {
      "resourceType": "Condition",
      "id": "denom-EXM153-Condition",
      "meta": {
        "profile": [ "http://hl7.org/fhir/us/core/StructureDefinition/us-core-condition" ]
      },
      "verificationStatus": {
        "coding": [ {
          "system": "http://terminology.hl7.org/CodeSystem/condition-verification",
          "code": "confirmed"
        } ]
      },
      "category": [ {
        "coding": [ {
          "system": "http://terminology.hl7.org/CodeSystem/condition-category",
          "code": "encounter-diagnosis",
          "display": "Encounter Diagnosis"
        } ]
      } ],
      "code": {
        "coding": [ {
          "system": "http://snomed.info/sct",
          "code": "129670002",
          "display": "Herpetic cervicitis (disorder)"
        } ]
      },
      "subject": {
        "reference": "Patient/denom-EXM153"
      },
      "onsetDateTime": "2019-02-21",
      "abatementDateTime": "2019-02-22"
    },
    "request": {
      "method": "PUT",
      "url": "Condition/denom-EXM153-Condition"
    }
  }, {
    "resource": {
      "resourceType": "Patient",
      "id": "denom-EXM153",
      "meta": {
        "profile": [ "http://hl7.org/fhir/us/core/StructureDefinition/us-core-patient" ]
      },
      "extension": [ {
        "url": "http://hl7.org/fhir/us/core/StructureDefinition/us-core-race",
        "extension": [ {
          "url": "ombCategory",
          "valueCoding": {
            "system": "urn:oid:2.16.840.1.113883.6.238",
            "code": "2106-3",
            "display": "White"
          }
        } ]
      }, {
        "url": "http://hl7.org/fhir/us/core/StructureDefinition/us-core-ethnicity",
        "extension": [ {
          "url": "ombCategory",
          "valueCoding": {
            "system": "urn:oid:2.16.840.1.113883.6.238",
            "code": "2186-5",
            "display": "Not Hispanic or Latino"
          }
        } ]
      } ],
      "identifier": [ {
        "use": "usual",
        "type": {
          "coding": [ {
            "system": "http://terminology.hl7.org/CodeSystem/v2-0203",
            "code": "MR",
            "display": "Medical Record Number"
          } ]
        },
        "system": "http://hospital.smarthealthit.org",
        "value": "9999999911"
      } ],
      "name": [ {
        "family": "Jones",
        "given": [ "Louise" ]
      } ],
      "gender": "female",
      "birthDate": "2002-01-21"
    },
    "request": {
      "method": "PUT",
      "url": "Patient/denom-EXM153"
    }
  }, {
    "resource": {
      "resourceType": "MeasureReport",
      "id": "measurereport-denom-EXM153",
      "contained": [ {
        "resourceType": "Observation",
        "id": "68a4a82a-f4f5-4aa4-b000-c27d445b3541",
        "extension": [ {
          "url": "http://hl7.org/fhir/StructureDefinition/cqf-measureInfo",
          "extension": [ {
            "url": "measure",
            "valueCanonical": "http://hl7.org/fhir/us/cqfmeasures/Measure/measure-EXM153-9.2.000"
          }, {
            "url": "populationId",
            "valueString": "sde-race"
          } ]
        } ],
        "status": "final",
        "code": {
          "text": "sde-race"
        },
        "valueCodeableConcept": {
          "coding": [ {
            "system": "urn:oid:2.16.840.1.113883.6.238",
            "code": "2106-3",
            "display": "White"
          } ]
        }
      }, {
        "resourceType": "Observation",
        "id": "a6f170f9-53c0-42c9-b030-2aaa1828659a",
        "extension": [ {
          "url": "http://hl7.org/fhir/StructureDefinition/cqf-measureInfo",
          "extension": [ {
            "url": "measure",
            "valueCanonical": "http://hl7.org/fhir/us/cqfmeasures/Measure/measure-EXM153-9.2.000"
          }, {
            "url": "populationId",
            "valueString": "sde-ethnicity"
          } ]
        } ],
        "status": "final",
        "code": {
          "text": "sde-ethnicity"
        },
        "valueCodeableConcept": {
          "coding": [ {
            "system": "urn:oid:2.16.840.1.113883.6.238",
            "code": "2186-5",
            "display": "Not Hispanic or Latino"
          } ]
        }
      }, {
        "resourceType": "Observation",
        "id": "9a2ffded-7ae2-419c-9eba-a70b0106822b",
        "extension": [ {
          "url": "http://hl7.org/fhir/StructureDefinition/cqf-measureInfo",
          "extension": [ {
            "url": "measure",
            "valueCanonical": "http://hl7.org/fhir/us/cqfmeasures/Measure/measure-EXM153-9.2.000"
          }, {
            "url": "populationId",
            "valueString": "sde-sex"
          } ]
        } ],
        "status": "final",
        "code": {
          "text": "sde-sex"
        },
        "valueCodeableConcept": {
          "coding": [ {
            "code": "F"
          } ]
        }
      } ],
      "status": "complete",
      "type": "individual",
      "measure": "Measure/measure-EXM153-9.2.000",
      "subject": {
        "reference": "Patient/denom-EXM153"
      },
      "period": {
        "start": "2019-01-01T00:00:00+00:00",
        "end": "2019-12-31T00:00:00+00:00"
      },
      "group": [ {
        "id": "group-1",
        "population": [ {
          "code": {
            "coding": [ {
              "system": "http://terminology.hl7.org/CodeSystem/measure-population",
              "code": "initial-population",
              "display": "Initial Population"
            } ]
          },
          "count": 1
        }, {
          "code": {
            "coding": [ {
              "system": "http://terminology.hl7.org/CodeSystem/measure-population",
              "code": "numerator",
              "display": "Numerator"
            } ]
          },
          "count": 0
        }, {
          "code": {
            "coding": [ {
              "system": "http://terminology.hl7.org/CodeSystem/measure-population",
              "code": "denominator",
              "display": "Denominator"
            } ]
          },
          "count": 1
        }, {
          "code": {
            "coding": [ {
              "system": "http://terminology.hl7.org/CodeSystem/measure-population",
              "code": "denominator-exclusion",
              "display": "Denominator Exclusion"
            } ]
          },
          "count": 0
        } ],
        "measureScore": {
          "value": 0
        }
      } ],
      "evaluatedResource": [ {
        "reference": "#68a4a82a-f4f5-4aa4-b000-c27d445b3541"
      }, {
        "reference": "#a6f170f9-53c0-42c9-b030-2aaa1828659a"
      }, {
        "reference": "#9a2ffded-7ae2-419c-9eba-a70b0106822b"
      }, {
        "reference": "#Encounter/denom-EXM153-Encounter"
      }, {
        "reference": "#Patient/denom-EXM153"
      }, {
        "reference": "#Condition/denom-EXM153-Condition"
      } ]
    },
    "request": {
      "method": "PUT",
      "url": "MeasureReport/measurereport-denom-EXM153"
    }
  } ]
}