{
  "resourceType": "Bundle",
  "id": "tests-numer-CMS122-Patient-bundle",
  "type": "transaction",
  "entry": [ {
    "resource": {
      "resourceType": "Condition",
      "id": "numer-CMS122-Condition",
      "clinicalStatus": {
        "coding": [ {
          "system": "http://terminology.hl7.org/CodeSystem/condition-clinical",
          "code": "active",
          "display": "Active"
        } ],
        "text": "Active"
      },
      "verificationStatus": {
        "coding": [ {
          "system": "http://terminology.hl7.org/CodeSystem/condition-ver-status",
          "code": "confirmed",
          "display": "confirmed"
        } ],
        "text": "confirmed"
      },
      "code": {
        "coding": [ {
          "system": "http://hl7.org/fhir/sid/icd-10-cm",
          "code": "E10.10",
          "display": "Type 1 diabetes mellitus with ketoacidosis without coma"
        } ],
        "text": "Type 1 diabetes"
      },
      "subject": {
        "reference": "Patient/numer-CMS122-Patient"
      },
      "encounter": {
        "reference": "Encounter/numer-CMS122-Encounter"
      },
      "onsetPeriod": {
        "start": "2009-01-16T08:30:00"
      }
    },
    "request": {
      "method": "PUT",
      "url": "Condition/numer-CMS122-Condition"
    }
  }, {
    "resource": {
      "resourceType": "Encounter",
      "id": "numer-CMS122-Encounter",
      "text": {
        "status": "generated"
      },
      "status": "finished",
      "type": [ {
        "coding": [ {
          "system": "http://www.ama-assn.org/go/cpt",
          "code": "99202",
          "display": "Office or other outpatient visit for the evaluation and management of a new patient, which requires a medically appropriate history and/or examination and straightforward medical decision making. When using time for code selection, 15-29 minutes of total time is spent on the date of the encounter."
        } ],
        "text": "Office Visit"
      } ],
      "subject": {
        "reference": "Patient/numer-CMS122-Patient"
      },
      "period": {
        "start": "2019-01-16T08:30:00",
        "end": "2019-01-20T08:30:00"
      }
    },
    "request": {
      "method": "PUT",
      "url": "Encounter/numer-CMS122-Encounter"
    }
  }, {
    "resource": {
      "resourceType": "Observation",
      "id": "numer-CMS122-Observation",
      "status": "final",
      "category": [ {
        "coding": [ {
          "system": "http://terminology.hl7.org/CodeSystem/observation-category",
          "code": "laboratory"
        } ]
      } ],
      "code": {
        "coding": [ {
          "system": "http://loinc.org",
          "code": "17856-6",
          "display": "Hemoglobin A1c/Hemoglobin.total in Blood by HPLC"
        } ]
      },
      "subject": {
        "reference": "Patient/numer-CMS122-Patient"
      },
      "effectiveDateTime": "2019-01-17T12:30:00",
      "valueQuantity": {
        "value": 7.1,
        "unit": "%",
        "system": "http://unitsofmeasure.org",
        "code": "%"
      }
    },
    "request": {
      "method": "PUT",
      "url": "Observation/numer-CMS122-Observation"
    }
  }, {
    "resource": {
      "resourceType": "Observation",
      "id": "numer-CMS122-Observation2",
      "status": "final",
      "category": [ {
        "coding": [ {
          "system": "http://terminology.hl7.org/CodeSystem/observation-category",
          "code": "laboratory"
        } ]
      } ],
      "code": {
        "coding": [ {
          "system": "http://loinc.org",
          "code": "17856-6",
          "display": "Hemoglobin A1c/Hemoglobin.total in Blood by HPLC"
        } ]
      },
      "subject": {
        "reference": "Patient/numer-CMS122-Patient"
      },
      "effectiveDateTime": "2019-10-17T12:30:00",
      "valueQuantity": {
        "value": 9.1,
        "unit": "%",
        "system": "http://unitsofmeasure.org",
        "code": "%"
      }
    },
    "request": {
      "method": "PUT",
      "url": "Observation/numer-CMS122-Observation2"
    }
  }, {
    "resource": {
      "resourceType": "Patient",
      "id": "numer-CMS122-Patient",
      "meta": {
        "profile": [ "http://hl7.org/fhir/us/core/StructureDefinition/us-core-patient" ]
      },
      "text": {
        "status": "extensions"
      },
      "extension": [ {
        "url": "http://hl7.org/fhir/us/core/StructureDefinition/us-core-race",
        "extension": [ {
          "url": "ombCategory",
          "valueCoding": {
            "system": "urn:oid:2.16.840.1.113883.6.238",
            "code": "2106-3",
            "display": "White"
          }
        } ]
      }, {
        "url": "http://hl7.org/fhir/us/core/StructureDefinition/us-core-ethnicity",
        "extension": [ {
          "url": "ombCategory",
          "valueCoding": {
            "system": "urn:oid:2.16.840.1.113883.6.238",
            "code": "2186-5",
            "display": "Not Hispanic or Latino"
          }
        } ]
      } ],
      "active": true,
      "name": [ {
        "use": "official",
        "text": "BECK,TOM",
        "family": "BECK",
        "given": [ "TOM" ]
      } ],
      "gender": "male",
      "birthDate": "1965-06-30"
    },
    "request": {
      "method": "PUT",
      "url": "Patient/numer-CMS122-Patient"
    }
  } ]
}