{
    "resourceType": "MeasureReport",
    "contained": [
        {
            "resourceType": "Observation",
            "id": "c77c4bd9-8415-4160-a844-e2cde694822f",
            "extension": [
                {
                    "url": "http://hl7.org/fhir/StructureDefinition/cqf-measureInfo",
                    "extension": [
                        {
                            "url": "measure",
                            "valueCanonical": "http://hl7.org/fhir/us/cqfmeasures/Measure/HybridHWRFHIR"
                        },
                        {
                            "url": "populationId",
                            "valueString": "sde-race"
                        }
                    ]
                }
            ],
            "status": "final",
            "code": {
                "text": "sde-race"
            },
            "valueCodeableConcept": {
                "coding": [
                    {
                        "system": "http://www.cdc.gov/phin/resources/vocabulary/index.html",
                        "code": "1002-5",
                        "display": "American Indian or Alaska Native"
                    }
                ]
            }
        },
        {
            "resourceType": "Observation",
            "id": "667b8aa7-3d7f-4565-a71a-f70555775bb4",
            "extension": [
                {
                    "url": "http://hl7.org/fhir/StructureDefinition/cqf-measureInfo",
                    "extension": [
                        {
                            "url": "measure",
                            "valueCanonical": "http://hl7.org/fhir/us/cqfmeasures/Measure/HybridHWRFHIR"
                        },
                        {
                            "url": "populationId",
                            "valueString": "sde-ethnicity"
                        }
                    ]
                }
            ],
            "status": "final",
            "code": {
                "text": "sde-ethnicity"
            },
            "valueCodeableConcept": {
                "coding": [
                    {
                        "system": "http://www.cdc.gov/phin/resources/vocabulary/index.html",
                        "code": "2186-5",
                        "display": "Not Hispanic or Latino"
                    }
                ]
            }
        },
        {
            "resourceType": "Observation",
            "id": "ad90ff6e-544a-4611-b3c7-4b681a48ccc6",
            "extension": [
                {
                    "url": "http://hl7.org/fhir/StructureDefinition/cqf-measureInfo",
                    "extension": [
                        {
                            "url": "measure",
                            "valueCanonical": "http://hl7.org/fhir/us/cqfmeasures/Measure/HybridHWRFHIR"
                        },
                        {
                            "url": "populationId",
                            "valueString": "sde-sex"
                        }
                    ]
                }
            ],
            "status": "final",
            "code": {
                "text": "sde-sex"
            },
            "valueCodeableConcept": {
                "coding": [
                    {
                        "code": "M"
                    }
                ]
            }
        }
    ],
    "status": "complete",
    "type": "individual",
    "measure": "Measure/HybridHWRFHIR",
    "subject": {
        "reference": "Patient/ip-EXM529-case2"
    },
    "period": {
        "start": "2019-01-01T00:00:00-07:00",
        "end": "2019-12-31T00:00:00-07:00"
    },
    "group": [
        {
            "population": [
                {
                    "code": {
                        "coding": [
                            {
                                "system": "http://terminology.hl7.org/CodeSystem/measure-population",
                                "code": "initial-population",
                                "display": "Initial Population"
                            }
                        ]
                    },
                    "count": 0
                }
            ]
        }
    ],
    "evaluatedResource": [
        {
            "reference": "#c77c4bd9-8415-4160-a844-e2cde694822f"
        },
        {
            "reference": "#667b8aa7-3d7f-4565-a71a-f70555775bb4"
        },
        {
            "reference": "#ad90ff6e-544a-4611-b3c7-4b681a48ccc6"
        },
        {
            "reference": "#Encounter/ip-EXM529-case2-Encounter"
        }
    ]
}